trials.thisRepN,trials.thisTrialN,trials.thisN,trials.thisIndex,thisRow.t,notes,trial.started,num_distr,Fixation.started,target.started,mouse.started,trial.stopped,mouse.x,mouse.y,mouse.leftButton,mouse.midButton,mouse.rightButton,mouse.time,participant,session,date,expName,psychopyVersion,frameRate,expStart,
0,0,0,0,0.06331189989577979,,0.02092479995917529,5,0.06331189989577979,0.06331189989577979,0.03744719992391765,12.423764999955893,[0.31],[0.15666666666666668],[1],[0],[0],[12.385939300060272],2,001,2024-10-10_15h47.11.406,Visual Search Experiment,2024.1.5,None,2024-10-10 15h47.27.340918 +0530,
1,0,1,0,12.48463099997025,,12.429832499939948,10,12.48463099997025,12.48463099997025,0.04190969991032034,14.223214700003155,[0.0033333333333333335],[-0.19333333333333333],[1],[0],[0],[1.752195099950768],2,001,2024-10-10_15h47.11.406,Visual Search Experiment,2024.1.5,None,2024-10-10 15h47.27.340918 +0530,
2,0,2,0,14.286253099911846,,14.225561999948695,10,14.286253099911846,14.286253099911846,0.03619229991454631,15.556488499976695,[0.4216666666666667],[-0.26],[1],[0],[0],[1.2949974000221118],2,001,2024-10-10_15h47.11.406,Visual Search Experiment,2024.1.5,None,2024-10-10 15h47.27.340918 +0530,
3,0,3,0,15.602399199968204,,15.559049699921161,10,15.602399199968204,15.602399199968204,0.030799799947999418,17.706672700005583,[0.165],[0.4166666666666667],[1],[0],[0],[2.1172831999137998],2,001,2024-10-10_15h47.11.406,Visual Search Experiment,2024.1.5,None,2024-10-10 15h47.27.340918 +0530,
4,0,4,0,17.753276799921878,,17.708972199936397,10,17.753276799921878,17.753276799921878,0.03150129993446171,18.9405769999139,[0.03166666666666667],[-0.17833333333333334],[1],[0],[0],[1.2002303000772372],2,001,2024-10-10_15h47.11.406,Visual Search Experiment,2024.1.5,None,2024-10-10 15h47.27.340918 +0530,
5,0,5,0,19.00406429998111,,18.942966799950227,10,19.00406429998111,19.00406429998111,0.03357660002075136,20.541256199940108,[0.021666666666666667],[-0.21166666666666667],[0],[0],[1],[1.5650523999938741],2,001,2024-10-10_15h47.11.406,Visual Search Experiment,2024.1.5,None,2024-10-10 15h47.27.340918 +0530,
6,0,6,0,20.587775499909185,,20.543554699979722,10,20.587775499909185,20.587775499909185,0.0311331000411883,24.109449099982157,[0.08333333333333333],[-0.045],[1],[0],[0],[3.535027700010687],2,001,2024-10-10_15h47.11.406,Visual Search Experiment,2024.1.5,None,2024-10-10 15h47.27.340918 +0530,
7,0,7,0,24.13919359992724,,24.11192910000682,5,24.13919359992724,24.13919359992724,0.017987200058996677,25.49342129996512,[0.14],[-0.4583333333333333],[1],[0],[0],[1.3638715000124648],2,001,2024-10-10_15h47.11.406,Visual Search Experiment,2024.1.5,None,2024-10-10 15h47.27.340918 +0530,
8,0,8,0,25.523066799971275,,25.495700099971145,5,25.523066799971275,25.523066799971275,0.01706980005837977,27.32749729999341,[0.49833333333333335],[-0.44333333333333336],[1],[0],[0],[1.8148973000934348],2,001,2024-10-10_15h47.11.406,Visual Search Experiment,2024.1.5,None,2024-10-10 15h47.27.340918 +0530,
9,0,9,0,27.357068299897946,,27.32976599992253,5,27.357068299897946,27.357068299897946,0.017809800105169415,29.096566999913193,[0.0],[-0.28],[1],[0],[0],[1.7485024000052363],2,001,2024-10-10_15h47.11.406,Visual Search Experiment,2024.1.5,None,2024-10-10 15h47.27.340918 +0530,
10,0,10,0,29.124449700000696,,29.098996199900284,5,29.124449700000696,29.124449700000696,0.018156100064516068,30.712237100000493,[0.17833333333333334],[-0.4666666666666667],[1],[0],[0],[1.5954659000271931],2,001,2024-10-10_15h47.11.406,Visual Search Experiment,2024.1.5,None,2024-10-10 15h47.27.340918 +0530,
11,0,11,0,30.775266899960116,,30.71455779997632,10,30.775266899960116,30.775266899960116,0.036968300002627075,32.86319149995688,[-0.49666666666666665],[0.43166666666666664],[1],[0],[0],[2.1118838998954743],2,001,2024-10-10_15h47.11.406,Visual Search Experiment,2024.1.5,None,2024-10-10 15h47.27.340918 +0530,
12,0,12,0,32.90925279993098,,32.86577529995702,5,32.90925279993098,32.90925279993098,0.019215899985283613,35.365795099991374,[-0.14],[0.4116666666666667],[1],[0],[0],[2.4811944999964908],2,001,2024-10-10_15h47.11.406,Visual Search Experiment,2024.1.5,None,2024-10-10 15h47.27.340918 +0530,
13,0,13,0,35.393376299995,,35.36810089997016,5,35.393376299995,35.393376299995,0.0182952000759542,37.14889959990978,[0.105],[-0.25166666666666665],[1],[0],[0],[1.762782200006768],2,001,2024-10-10_15h47.11.406,Visual Search Experiment,2024.1.5,None,2024-10-10 15h47.27.340918 +0530,
14,0,14,0,37.17776879994199,,37.15121159993578,5,37.17776879994199,37.17776879994199,0.015866499976255,38.96605980000459,[-0.3016666666666667],[-0.23666666666666666],[1],[0],[0],[1.7992227000650018],2,001,2024-10-10_15h47.11.406,Visual Search Experiment,2024.1.5,None,2024-10-10 15h47.27.340918 +0530,
15,0,15,0,39.0288348000031,,38.96850339998491,10,39.0288348000031,39.0288348000031,0.03473730001132935,40.16640499990899,[-0.25333333333333335],[-0.0033333333333333335],[1],[0],[0],[1.1633481999160722],2,001,2024-10-10_15h47.11.406,Visual Search Experiment,2024.1.5,None,2024-10-10 15h47.27.340918 +0530,
16,0,16,0,40.3958721999079,,40.16909119999036,5,40.3958721999079,40.3958721999079,0.19572810002136976,43.80150409997441,[0.14666666666666667],[-0.455],[1],[0],[0],[3.436727000051178],2,001,2024-10-10_15h47.11.406,Visual Search Experiment,2024.1.5,None,2024-10-10 15h47.27.340918 +0530,
17,0,17,0,43.84666129993275,,43.804326099925674,5,43.84666129993275,43.84666129993275,0.017452199943363667,45.83762449992355,[-0.4266666666666667],[0.4266666666666667],[1],[0],[0],[2.0161340000340715],2,001,2024-10-10_15h47.11.406,Visual Search Experiment,2024.1.5,None,2024-10-10 15h47.27.340918 +0530,
18,0,18,0,45.881773600005545,,45.84029429999646,5,45.881773600005545,45.881773600005545,0.013773800106719136,47.35327049996704,[0.10333333333333333],[0.26],[1],[0],[0],[1.4994895999552682],2,001,2024-10-10_15h47.11.406,Visual Search Experiment,2024.1.5,None,2024-10-10 15h47.27.340918 +0530,
19,0,19,0,47.39919259992894,,47.35552729992196,5,47.39919259992894,47.39919259992894,0.01618070004042238,48.786727999919094,[-0.515],[0.395],[1],[0],[0],[1.4151817000238225],2,001,2024-10-10_15h47.11.406,Visual Search Experiment,2024.1.5,None,2024-10-10 15h47.27.340918 +0530,
20,0,20,0,48.83227759995498,,48.78911429992877,5,48.83227759995498,48.83227759995498,0.015008299960754812,50.987761899945326,[-0.10833333333333334],[-0.35],[1],[0],[0],[2.183863899903372],2,001,2024-10-10_15h47.11.406,Visual Search Experiment,2024.1.5,None,2024-10-10 15h47.27.340918 +0530,
21,0,21,0,51.03329880000092,,50.99006240000017,5,51.03329880000092,51.03329880000092,0.018691200064495206,52.754522799979895,[0.2],[-0.16166666666666665],[1],[0],[0],[1.746074500028044],2,001,2024-10-10_15h47.11.406,Visual Search Experiment,2024.1.5,None,2024-10-10 15h47.27.340918 +0530,
22,0,22,0,52.81732459994964,,52.75677390000783,10,52.81732459994964,52.81732459994964,0.032526199938729405,54.94092369999271,[0.45166666666666666],[0.41833333333333333],[1],[0],[0],[2.151653599925339],2,001,2024-10-10_15h47.11.406,Visual Search Experiment,2024.1.5,None,2024-10-10 15h47.27.340918 +0530,
23,0,23,0,54.96821089996956,,54.9438322999049,5,54.96821089996956,54.96821089996956,0.013703699922189116,56.288097999989986,[0.12833333333333333],[-0.10833333333333334],[1],[0],[0],[1.3310640000272542],2,001,2024-10-10_15h47.11.406,Visual Search Experiment,2024.1.5,None,2024-10-10 15h47.27.340918 +0530,
24,0,24,0,56.352120199939236,,56.29047229990829,10,56.352120199939236,56.352120199939236,0.0325029999949038,57.75715479999781,[-0.11666666666666667],[-0.11833333333333333],[1],[0],[0],[1.4343960999976844],2,001,2024-10-10_15h47.11.406,Visual Search Experiment,2024.1.5,None,2024-10-10 15h47.27.340918 +0530,
25,0,25,0,57.81929999997374,,57.759757299907506,10,57.81929999997374,57.81929999997374,0.0364388000452891,59.474739099969156,[0.17333333333333334],[0.18166666666666667],[1],[0],[0],[1.6786335000069812],2,001,2024-10-10_15h47.11.406,Visual Search Experiment,2024.1.5,None,2024-10-10 15h47.27.340918 +0530,
26,0,26,0,59.52008389995899,,59.47725569992326,5,59.52008389995899,59.52008389995899,0.014842300093732774,62.442486099898815,[-0.40166666666666667],[-0.4483333333333333],[1],[0],[0],[2.950638300040737],2,001,2024-10-10_15h47.11.406,Visual Search Experiment,2024.1.5,None,2024-10-10 15h47.27.340918 +0530,
27,0,27,0,62.487678200006485,,62.44518669997342,5,62.487678200006485,62.487678200006485,0.02155869989655912,64.74275729991496,[0.28],[0.4583333333333333],[1],[0],[0],[2.2766761999810115],2,001,2024-10-10_15h47.11.406,Visual Search Experiment,2024.1.5,None,2024-10-10 15h47.27.340918 +0530,
28,0,28,0,64.78860259999055,,64.74502409994602,10,64.78860259999055,64.78860259999055,0.028827899950556457,66.81062030000612,[-0.25333333333333335],[-0.14833333333333334],[1],[0],[0],[2.0369910000590608],2,001,2024-10-10_15h47.11.406,Visual Search Experiment,2024.1.5,None,2024-10-10 15h47.27.340918 +0530,
29,0,29,0,66.87277279992122,,66.81330309994519,10,66.87277279992122,66.87277279992122,0.028079999960027635,68.19586189999245,[0.14],[0.33],[1],[0],[0],[1.354715499910526],2,001,2024-10-10_15h47.11.406,Visual Search Experiment,2024.1.5,None,2024-10-10 15h47.27.340918 +0530,
30,0,30,0,68.25690499995835,,68.19816449994687,10,68.25690499995835,68.25690499995835,0.03023799997754395,70.92897109990008,[-0.4683333333333333],[-0.12666666666666668],[1],[0],[0],[2.7008262000745162],2,001,2024-10-10_15h47.11.406,Visual Search Experiment,2024.1.5,None,2024-10-10 15h47.27.340918 +0530,
31,0,31,0,70.95789249998052,,70.93129039998166,5,70.95789249998052,70.95789249998052,0.016536799957975745,72.3124189999653,[-0.44333333333333336],[0.4066666666666667],[1],[0],[0],[1.364812200074084],2,001,2024-10-10_15h47.11.406,Visual Search Experiment,2024.1.5,None,2024-10-10 15h47.27.340918 +0530,
32,0,32,0,72.35875049990136,,72.31487609993201,5,72.35875049990136,72.35875049990136,0.020050999941304326,74.36423429998104,[-0.3883333333333333],[-0.3233333333333333],[1],[0],[0],[2.029502399964258],2,001,2024-10-10_15h47.11.406,Visual Search Experiment,2024.1.5,None,2024-10-10 15h47.27.340918 +0530,
33,0,33,0,74.42575609998312,,74.36674329999369,10,74.42575609998312,74.42575609998312,0.030602400074712932,76.01445069990586,[0.4766666666666667],[-0.2833333333333333],[1],[0],[0],[1.6174580999650061],2,001,2024-10-10_15h47.11.406,Visual Search Experiment,2024.1.5,None,2024-10-10 15h47.27.340918 +0530,
34,0,34,0,76.07671369996388,,76.0170480000088,10,76.07671369996388,76.07671369996388,0.027942299959249794,79.29742299998179,[0.4683333333333333],[0.4083333333333333],[1],[0],[0],[3.252676000003703],2,001,2024-10-10_15h47.11.406,Visual Search Experiment,2024.1.5,None,2024-10-10 15h47.27.340918 +0530,
35,0,35,0,79.34432499995455,,79.29975909995846,10,79.34432499995455,79.34432499995455,0.03096720005851239,80.63265369995497,[0.37333333333333335],[0.4533333333333333],[1],[0],[0],[1.3021864000475034],2,001,2024-10-10_15h47.11.406,Visual Search Experiment,2024.1.5,None,2024-10-10 15h47.27.340918 +0530,
36,0,36,0,80.6952081999043,,80.63494809996337,10,80.6952081999043,80.6952081999043,0.03338189993519336,82.60080069990363,[-0.41],[-0.04833333333333333],[1],[0],[0],[1.9326970999827608],2,001,2024-10-10_15h47.11.406,Visual Search Experiment,2024.1.5,None,2024-10-10 15h47.27.340918 +0530,
37,0,37,0,82.66213099996094,,82.60316039994359,10,82.66213099996094,82.66213099996094,0.03195039997808635,85.33559469995089,[0.37833333333333335],[0.345],[1],[0],[0],[2.700803600018844],2,001,2024-10-10_15h47.11.406,Visual Search Experiment,2024.1.5,None,2024-10-10 15h47.27.340918 +0530,
38,0,38,0,85.38005019992124,,85.33790219994262,5,85.38005019992124,85.38005019992124,0.02044620004016906,86.75214110000525,[-0.39666666666666667],[0.26166666666666666],[1],[0],[0],[1.394003099994734],2,001,2024-10-10_15h47.11.406,Visual Search Experiment,2024.1.5,None,2024-10-10 15h47.27.340918 +0530,
39,0,39,0,86.79819849994965,,86.75468879996333,5,86.79819849994965,86.79819849994965,0.02050270000472665,87.985626699985,[-0.45166666666666666],[-0.105],[1],[0],[0],[1.2107489999616519],2,001,2024-10-10_15h47.11.406,Visual Search Experiment,2024.1.5,None,2024-10-10 15h47.27.340918 +0530,
40,0,40,0,88.03129259997513,,87.98884619993623,5,88.03129259997513,88.03129259997513,0.0180147000355646,89.08456769993063,[-0.275],[0.055],[1],[0],[0],[1.078021000023],2,001,2024-10-10_15h47.11.406,Visual Search Experiment,2024.1.5,None,2024-10-10 15h47.27.340918 +0530,
41,0,41,0,89.1484846000094,,89.08684449992143,10,89.1484846000094,89.1484846000094,0.03614820004440844,90.53729089989793,[0.3416666666666667],[0.011666666666666667],[1],[0],[0],[1.4143535000039265],2,001,2024-10-10_15h47.11.406,Visual Search Experiment,2024.1.5,None,2024-10-10 15h47.27.340918 +0530,
42,0,42,0,90.59863659995608,,90.54062969994266,10,90.59863659995608,90.59863659995608,0.03492379991803318,92.52000839996617,[-0.255],[-0.20166666666666666],[1],[0],[0],[1.944913599989377],2,001,2024-10-10_15h47.11.406,Visual Search Experiment,2024.1.5,None,2024-10-10 15h47.27.340918 +0530,
43,0,43,0,92.58292749989778,,92.52230239997152,10,92.58292749989778,92.58292749989778,0.03526200004853308,94.4051865999354,[0.2683333333333333],[0.19],[1],[0],[0],[1.8478807000210509],2,001,2024-10-10_15h47.11.406,Visual Search Experiment,2024.1.5,None,2024-10-10 15h47.27.340918 +0530,
44,0,44,0,94.45047349995002,,94.40777029993478,5,94.45047349995002,94.45047349995002,0.014850299921818078,96.20524789998308,[-0.4066666666666667],[-0.42],[1],[0],[0],[1.7831054999260232],2,001,2024-10-10_15h47.11.406,Visual Search Experiment,2024.1.5,None,2024-10-10 15h47.27.340918 +0530,
45,0,45,0,96.26756589999422,,96.207617499982,10,96.26756589999422,96.26756589999422,0.04003629996441305,97.95534039998893,[-0.041666666666666664],[0.15],[1],[0],[0],[1.7080399000551552],2,001,2024-10-10_15h47.11.406,Visual Search Experiment,2024.1.5,None,2024-10-10 15h47.27.340918 +0530,
46,0,46,0,98.00165409990586,,97.95768459991086,5,98.00165409990586,98.00165409990586,0.01781210000626743,99.20790119993035,[0.44666666666666666],[-0.31666666666666665],[1],[0],[0],[1.2324850000441074],2,001,2024-10-10_15h47.11.406,Visual Search Experiment,2024.1.5,None,2024-10-10 15h47.27.340918 +0530,
47,0,47,0,99.25201199995354,,99.2102343000006,5,99.25201199995354,99.25201199995354,0.018758999998681247,100.35667989996728,[-0.385],[0.065],[1],[0],[0],[1.1280076000839472],2,001,2024-10-10_15h47.11.406,Visual Search Experiment,2024.1.5,None,2024-10-10 15h47.27.340918 +0530,
48,0,48,0,100.38615899998695,,100.3589907999849,5,100.38615899998695,100.38615899998695,0.014358900021761656,101.27539379999507,[0.4166666666666667],[0.165],[1],[0],[0],[0.9021171999629587],2,001,2024-10-10_15h47.11.406,Visual Search Experiment,2024.1.5,None,2024-10-10 15h47.27.340918 +0530,
49,0,49,0,101.3199595999904,,101.27758579992224,10,101.3199595999904,101.3199595999904,0.027072999975644052,102.62438619998284,[-0.31833333333333336],[0.11333333333333333],[1],[0],[0],[1.3199813000392169],2,001,2024-10-10_15h47.11.406,Visual Search Experiment,2024.1.5,None,2024-10-10 15h47.27.340918 +0530,
50,0,50,0,102.67041379993316,,102.62673429993447,5,102.67041379993316,102.67041379993316,0.017526800045743585,103.57775069994386,[0.3616666666666667],[-0.265],[1],[0],[0],[0.933667300036177],2,001,2024-10-10_15h47.11.406,Visual Search Experiment,2024.1.5,None,2024-10-10 15h47.27.340918 +0530,
51,0,51,0,103.62062099995092,,103.58116419997532,5,103.62062099995092,103.62062099995092,0.01548569998703897,105.47528179991059,[-0.45666666666666667],[0.4633333333333333],[1],[0],[0],[1.878933300031349],2,001,2024-10-10_15h47.11.406,Visual Search Experiment,2024.1.5,None,2024-10-10 15h47.27.340918 +0530,
52,0,52,0,105.53797419997863,,105.4775639999425,10,105.53797419997863,105.53797419997863,0.03854849992785603,107.57519899995532,[0.005],[-0.32666666666666666],[1],[0],[0],[2.059341299929656],2,001,2024-10-10_15h47.11.406,Visual Search Experiment,2024.1.5,None,2024-10-10 15h47.27.340918 +0530,
53,0,53,0,107.63895779999439,,107.57751869992353,10,107.63895779999439,107.63895779999439,0.03463300003204495,110.66013539989945,[-0.33166666666666667],[0.21833333333333332],[1],[0],[0],[3.0483081999700516],2,001,2024-10-10_15h47.11.406,Visual Search Experiment,2024.1.5,None,2024-10-10 15h47.27.340918 +0530,
54,0,54,0,110.72328149992973,,110.66266159992665,10,110.72328149992973,110.72328149992973,0.03646420000586659,112.67869959992822,[-0.365],[-0.215],[1],[0],[0],[1.9797560999868438],2,001,2024-10-10_15h47.11.406,Visual Search Experiment,2024.1.5,None,2024-10-10 15h47.27.340918 +0530,
55,0,55,0,112.7074112999253,,112.68115329998545,5,112.7074112999253,112.7074112999253,0.0171081000007689,114.0630533999065,[-0.12833333333333333],[0.25166666666666665],[1],[0],[0],[1.3650631000055],2,001,2024-10-10_15h47.11.406,Visual Search Experiment,2024.1.5,None,2024-10-10 15h47.27.340918 +0530,
56,0,56,0,114.10806599992793,,114.06537490000483,5,114.10806599992793,114.10806599992793,0.01455830002669245,115.3628206999274,[0.10333333333333333],[-0.3983333333333333],[1],[0],[0],[1.2830762000521645],2,001,2024-10-10_15h47.11.406,Visual Search Experiment,2024.1.5,None,2024-10-10 15h47.27.340918 +0530,
57,0,57,0,115.39187389996368,,115.36571499996353,5,115.39187389996368,115.39187389996368,0.014910400030203164,116.78050049999729,[0.4033333333333333],[0.2966666666666667],[1],[0],[0],[1.4002351000672206],2,001,2024-10-10_15h47.11.406,Visual Search Experiment,2024.1.5,None,2024-10-10 15h47.27.340918 +0530,
58,0,58,0,116.8427257000003,,116.7841753999237,10,116.8427257000003,116.8427257000003,0.033507299958728254,119.28173849999439,[-0.4816666666666667],[-0.215],[1],[0],[0],[2.4642674999777228],2,001,2024-10-10_15h47.11.406,Visual Search Experiment,2024.1.5,None,2024-10-10 15h47.27.340918 +0530,
59,0,59,0,119.3269844999304,,119.28436009993311,5,119.3269844999304,119.3269844999304,0.02008599997498095,120.4655414998997,[-0.19666666666666666],[0.13833333333333334],[1],[0],[0],[1.1613698999863118],2,001,2024-10-10_15h47.11.406,Visual Search Experiment,2024.1.5,None,2024-10-10 15h47.27.340918 +0530,
60,0,60,0,120.49371249997057,,120.4678491000086,5,120.49371249997057,120.49371249997057,0.016597700072452426,121.76583149994258,[-0.29833333333333334],[-0.0033333333333333335],[1],[0],[0],[1.2816070999251679],2,001,2024-10-10_15h47.11.406,Visual Search Experiment,2024.1.5,None,2024-10-10 15h47.27.340918 +0530,
61,0,61,0,121.81110429996625,,121.76816919993144,5,121.81110429996625,121.81110429996625,0.016557900002226233,123.04992309992667,[-0.3566666666666667],[-0.36],[1],[0],[0],[1.2653528000228107],2,001,2024-10-10_15h47.11.406,Visual Search Experiment,2024.1.5,None,2024-10-10 15h47.27.340918 +0530,
62,0,62,0,123.11126839998178,,123.0525829999242,10,123.11126839998178,123.11126839998178,0.027549799997359514,124.20012900000438,[0.14666666666666667],[-0.18166666666666667],[1],[0],[0],[1.1201467999489978],2,001,2024-10-10_15h47.11.406,Visual Search Experiment,2024.1.5,None,2024-10-10 15h47.27.340918 +0530,
63,0,63,0,124.24530049995519,,124.202793299919,5,124.24530049995519,124.24530049995519,0.016701500047929585,125.36716579995118,[0.14833333333333334],[0.08333333333333333],[1],[0],[0],[1.1479052000213414],2,001,2024-10-10_15h47.11.406,Visual Search Experiment,2024.1.5,None,2024-10-10 15h47.27.340918 +0530,
64,0,64,0,125.39570329990238,,125.36951389990281,5,125.39570329990238,125.39570329990238,0.014811899978667498,127.05067469994538,[-0.15166666666666667],[-0.22166666666666668],[1],[0],[0],[1.6666165000060573],2,001,2024-10-10_15h47.11.406,Visual Search Experiment,2024.1.5,None,2024-10-10 15h47.27.340918 +0530,
65,0,65,0,127.09649329993408,,127.0532173999818,5,127.09649329993408,127.09649329993408,0.020976300002075732,128.61824119999073,[-0.3983333333333333],[-0.21833333333333332],[1],[0],[0],[1.5443307000678033],2,001,2024-10-10_15h47.11.406,Visual Search Experiment,2024.1.5,None,2024-10-10 15h47.27.340918 +0530,
66,0,66,0,128.66393809998408,,128.62080269993749,5,128.66393809998408,128.66393809998408,0.015641600009985268,130.33423289994244,[0.02666666666666667],[0.2966666666666667],[1],[0],[0],[1.698060999973677],2,001,2024-10-10_15h47.11.406,Visual Search Experiment,2024.1.5,None,2024-10-10 15h47.27.340918 +0530,
67,0,67,0,130.36425959994085,,130.336504100007,5,130.36425959994085,130.36425959994085,0.01436999998986721,131.5693942999933,[-0.14],[-0.3433333333333333],[1],[0],[0],[1.2187590000685304],2,001,2024-10-10_15h47.11.406,Visual Search Experiment,2024.1.5,None,2024-10-10 15h47.27.340918 +0530,
68,0,68,0,131.61541480000596,,131.5717020999873,5,131.61541480000596,131.61541480000596,0.0169525999808684,132.8052835999988,[0.058333333333333334],[0.41833333333333333],[1],[0],[0],[1.2166746000293642],2,001,2024-10-10_15h47.11.406,Visual Search Experiment,2024.1.5,None,2024-10-10 15h47.27.340918 +0530,
69,0,69,0,132.84862469998188,,132.81050089991186,5,132.84862469998188,132.84862469998188,0.021761300042271614,133.95235859998502,[0.31333333333333335],[0.19333333333333333],[1],[0],[0],[1.1209841000381857],2,001,2024-10-10_15h47.11.406,Visual Search Experiment,2024.1.5,None,2024-10-10 15h47.27.340918 +0530,
70,0,70,0,133.9992002999643,,133.95482749992516,5,133.9992002999643,133.9992002999643,0.01587519992608577,135.4528879999416,[0.21],[-0.0016666666666666668],[1],[0],[0],[1.4824370000278577],2,001,2024-10-10_15h47.11.406,Visual Search Experiment,2024.1.5,None,2024-10-10 15h47.27.340918 +0530,
71,0,71,0,135.51640339998994,,135.4554503998952,10,135.51640339998994,135.51640339998994,0.03126900002826005,138.0397211998934,[0.295],[-0.44666666666666666],[1],[0],[0],[2.553192700026557],2,001,2024-10-10_15h47.11.406,Visual Search Experiment,2024.1.5,None,2024-10-10 15h47.27.340918 +0530,
72,0,72,0,138.10066009999719,,138.04470909992233,10,138.10066009999719,138.10066009999719,0.03317640000022948,139.38770439999644,[0.30666666666666664],[0.17166666666666666],[1],[0],[0],[1.31076840008609],2,001,2024-10-10_15h47.11.406,Visual Search Experiment,2024.1.5,None,2024-10-10 15h47.27.340918 +0530,
73,0,73,0,139.45138429990038,,139.3900368999457,10,139.45138429990038,139.45138429990038,0.027681899955496192,141.27212929993402,[0.43166666666666664],[0.145],[1],[0],[0],[1.8546764999628067],2,001,2024-10-10_15h47.11.406,Visual Search Experiment,2024.1.5,None,2024-10-10 15h47.27.340918 +0530,
74,0,74,0,141.33573549997527,,141.27445569995325,10,141.33573549997527,141.33573549997527,0.03216609999071807,142.54067009990104,[0.295],[-0.065],[1],[0],[0],[1.2341705999569967],2,001,2024-10-10_15h47.11.406,Visual Search Experiment,2024.1.5,None,2024-10-10 15h47.27.340918 +0530,
75,0,75,0,142.5858004000038,,142.5430398999015,5,142.5858004000038,142.5858004000038,0.018029799917712808,144.35921789996792,[-0.295],[-0.29],[1],[0],[0],[1.798408200033009],2,001,2024-10-10_15h47.11.406,Visual Search Experiment,2024.1.5,None,2024-10-10 15h47.27.340918 +0530,
76,0,76,0,144.42005570000038,,144.36151429999154,10,144.42005570000038,144.42005570000038,0.03241270000580698,148.44187649991363,[0.25],[0.45166666666666666],[1],[0],[0],[4.048151599941775],2,001,2024-10-10_15h47.11.406,Visual Search Experiment,2024.1.5,None,2024-10-10 15h47.27.340918 +0530,
77,0,77,0,148.48814699996728,,148.4458350999048,5,148.48814699996728,148.48814699996728,0.017802700051106513,149.55941969994456,[-0.12],[-0.25666666666666665],[1],[0],[0],[1.0962061000755057],2,001,2024-10-10_15h47.11.406,Visual Search Experiment,2024.1.5,None,2024-10-10 15h47.27.340918 +0530,
78,0,78,0,149.6058955999324,,149.56173379998654,5,149.6058955999324,149.6058955999324,0.014628299977630377,150.76058719994035,[-0.10166666666666667],[0.22833333333333333],[1],[0],[0],[1.1845020999899134],2,001,2024-10-10_15h47.11.406,Visual Search Experiment,2024.1.5,None,2024-10-10 15h47.27.340918 +0530,
79,0,79,0,150.82249609997962,,150.76291940000374,10,150.82249609997962,150.82249609997962,0.034316199948079884,152.15942029992584,[-0.2],[0.145],[1],[0],[0],[1.3624563000630587],2,001,2024-10-10_15h47.11.406,Visual Search Experiment,2024.1.5,None,2024-10-10 15h47.27.340918 +0530,
80,0,80,0,152.22314619994722,,152.1619494999759,10,152.22314619994722,152.22314619994722,0.030260900035500526,153.54336269991472,[0.011666666666666667],[0.17333333333333334],[1],[0],[0],[1.3513906999723986],2,001,2024-10-10_15h47.11.406,Visual Search Experiment,2024.1.5,None,2024-10-10 15h47.27.340918 +0530,
81,0,81,0,153.57336369995028,,153.54611929995008,5,153.57336369995028,153.57336369995028,0.014010799932293594,155.6632200999884,[-0.405],[-0.20666666666666667],[1],[0],[0],[2.103346199961379],2,001,2024-10-10_15h47.11.406,Visual Search Experiment,2024.1.5,None,2024-10-10 15h47.27.340918 +0530,
82,0,82,0,155.7242644999642,,155.66559629992116,10,155.7242644999642,155.7242644999642,0.028711100108921528,158.36314579995815,[-0.48833333333333334],[0.24],[1],[0],[0],[2.6690656000282615],2,001,2024-10-10_15h47.11.406,Visual Search Experiment,2024.1.5,None,2024-10-10 15h47.27.340918 +0530,
83,0,83,0,158.42519280000124,,158.3657297999598,10,158.42519280000124,158.42519280000124,0.03114779992029071,160.2811381999636,[-0.39],[0.13833333333333334],[1],[0],[0],[1.8847641999600455],2,001,2024-10-10_15h47.11.406,Visual Search Experiment,2024.1.5,None,2024-10-10 15h47.27.340918 +0530,
84,0,84,0,160.34262199990917,,160.2836987999035,10,160.34262199990917,160.34262199990917,0.03409740002825856,162.33031089999713,[-0.37333333333333335],[-0.18833333333333332],[1],[0],[0],[2.012901999987662],2,001,2024-10-10_15h47.11.406,Visual Search Experiment,2024.1.5,None,2024-10-10 15h47.27.340918 +0530,
85,0,85,0,162.3602918999968,,162.3332249999512,5,162.3602918999968,162.3602918999968,0.016196300042793155,163.46498479996808,[0.4066666666666667],[0.005],[1],[0],[0],[1.1163196000270545],2,001,2024-10-10_15h47.11.406,Visual Search Experiment,2024.1.5,None,2024-10-10 15h47.27.340918 +0530,
86,0,86,0,163.51123449997976,,163.46749889990315,5,163.51123449997976,163.51123449997976,0.01732419990003109,164.84970209992025,[-0.08333333333333333],[-0.36],[1],[0],[0],[1.3651455999352038],2,001,2024-10-10_15h47.11.406,Visual Search Experiment,2024.1.5,None,2024-10-10 15h47.27.340918 +0530,
87,0,87,0,164.87778779992368,,164.85241069993936,5,164.87778779992368,164.87778779992368,0.014054400031454861,168.73473339993507,[0.2633333333333333],[-0.39666666666666667],[1],[0],[0],[3.8685345000121742],2,001,2024-10-10_15h47.11.406,Visual Search Experiment,2024.1.5,None,2024-10-10 15h47.27.340918 +0530,
88,0,88,0,168.76279159996193,,168.73791369993705,5,168.76279159996193,168.76279159996193,0.015092000016011298,170.6333573999582,[0.09333333333333334],[0.38333333333333336],[1],[0],[0],[1.8809711000649258],2,001,2024-10-10_15h47.11.406,Visual Search Experiment,2024.1.5,None,2024-10-10 15h47.27.340918 +0530,
89,0,89,0,170.69703679997474,,170.63564200000837,10,170.69703679997474,170.69703679997474,0.030831700074486434,175.26899739995133,[-0.051666666666666666],[0.08833333333333333],[1],[0],[0],[4.6025567998876795],2,001,2024-10-10_15h47.11.406,Visual Search Experiment,2024.1.5,None,2024-10-10 15h47.27.340918 +0530,
90,0,90,0,175.29868229990825,,175.27187099994626,5,175.29868229990825,175.29868229990825,0.0182411998976022,176.90265079995152,[-0.4666666666666667],[-0.35333333333333333],[1],[0],[0],[1.6128699000691995],2,001,2024-10-10_15h47.11.406,Visual Search Experiment,2024.1.5,None,2024-10-10 15h47.27.340918 +0530,
91,0,91,0,176.9662529999623,,176.90632169996388,10,176.9662529999623,176.9662529999623,0.03355649998411536,181.3216860999819,[-0.008333333333333333],[0.011666666666666667],[1],[0],[0],[4.382281200028956],2,001,2024-10-10_15h47.11.406,Visual Search Experiment,2024.1.5,None,2024-10-10 15h47.27.340918 +0530,
92,0,92,0,181.36770449997857,,181.32404109998606,5,181.36770449997857,181.36770449997857,0.014843499986454844,182.92490629991516,[0.44],[0.425],[1],[0],[0],[1.5863172999816015],2,001,2024-10-10_15h47.11.406,Visual Search Experiment,2024.1.5,None,2024-10-10 15h47.27.340918 +0530,
93,0,93,0,182.98507930000778,,182.92738749994896,10,182.98507930000778,182.98507930000778,0.03385130001697689,184.6728221999947,[-0.38666666666666666],[-0.22],[1],[0],[0],[1.711975899990648],2,001,2024-10-10_15h47.11.406,Visual Search Experiment,2024.1.5,None,2024-10-10 15h47.27.340918 +0530,
94,0,94,0,184.73600359994452,,184.6760691999225,10,184.73600359994452,184.73600359994452,0.036446899990551174,187.5408371000085,[0.325],[0.475],[1],[0],[0],[2.8285830999957398],2,001,2024-10-10_15h47.11.406,Visual Search Experiment,2024.1.5,None,2024-10-10 15h47.27.340918 +0530,
95,0,95,0,187.6036842999747,,187.54317089996766,10,187.6036842999747,187.6036842999747,0.032563299988396466,188.84261579997838,[0.19333333333333333],[-0.30833333333333335],[1],[0],[0],[1.2669408000074327],2,001,2024-10-10_15h47.11.406,Visual Search Experiment,2024.1.5,None,2024-10-10 15h47.27.340918 +0530,
96,0,96,0,188.8870573999593,,188.84508199989796,10,188.8870573999593,188.8870573999593,0.029986700043082237,190.1745242999168,[0.4066666666666667],[0.27666666666666667],[1],[0],[0],[1.29959950002376],2,001,2024-10-10_15h47.11.406,Visual Search Experiment,2024.1.5,None,2024-10-10 15h47.27.340918 +0530,
97,0,97,0,190.23741199995857,,190.17715619993396,10,190.23741199995857,190.23741199995857,0.0331927000079304,192.04293669993058,[-0.15166666666666667],[-0.0033333333333333335],[1],[0],[0],[1.8328805000055581],2,001,2024-10-10_15h47.11.406,Visual Search Experiment,2024.1.5,None,2024-10-10 15h47.27.340918 +0530,
98,0,98,0,192.08907459990587,,192.0452304999344,5,192.08907459990587,192.08907459990587,0.01774049992673099,193.1602017999394,[-0.3433333333333333],[-0.006666666666666667],[1],[0],[0],[1.0973321999190375],2,001,2024-10-10_15h47.11.406,Visual Search Experiment,2024.1.5,None,2024-10-10 15h47.27.340918 +0530,
99,0,99,0,193.2225288999034,,193.16268979990855,10,193.2225288999034,193.2225288999034,0.03535880008712411,194.6100015999982,[0.325],[-0.25333333333333335],[1],[0],[0],[1.4122651999350637],2,001,2024-10-10_15h47.11.406,Visual Search Experiment,2024.1.5,None,2024-10-10 15h47.27.340918 +0530,
100,0,100,0,194.6562385999132,,194.61229229997844,5,194.6562385999132,194.6562385999132,0.021527400007471442,196.0118400999345,[-0.4716666666666667],[0.055],[1],[0],[0],[1.3782398999901488],2,001,2024-10-10_15h47.11.406,Visual Search Experiment,2024.1.5,None,2024-10-10 15h47.27.340918 +0530,
101,0,101,0,196.07333289994858,,196.0141320999246,10,196.07333289994858,196.07333289994858,0.03275949996896088,197.42900459992234,[0.04666666666666667],[0.06166666666666667],[1],[0],[0],[1.3823544000042602],2,001,2024-10-10_15h47.11.406,Visual Search Experiment,2024.1.5,None,2024-10-10 15h47.27.340918 +0530,
102,0,102,0,197.4905931999674,,197.43133049993776,10,197.4905931999674,197.4905931999674,0.032390099950134754,198.53388519992586,[0.145],[0.22333333333333333],[1],[0],[0],[1.070070800022222],2,001,2024-10-10_15h47.11.406,Visual Search Experiment,2024.1.5,None,2024-10-10 15h47.27.340918 +0530,
103,0,103,0,198.57526249997318,,198.53843949991278,5,198.57526249997318,198.57526249997318,0.020991099998354912,200.19641219999176,[-0.41],[-0.37833333333333335],[1],[0],[0],[1.6378839000826702],2,001,2024-10-10_15h47.11.406,Visual Search Experiment,2024.1.5,None,2024-10-10 15h47.27.340918 +0530,
104,0,104,0,200.22549969993997,,200.19871459994465,5,200.22549969993997,200.22549969993997,0.016702999942936003,201.71205889992416,[0.405],[-0.3416666666666667],[1],[0],[0],[1.496816199971363],2,001,2024-10-10_15h47.11.406,Visual Search Experiment,2024.1.5,None,2024-10-10 15h47.27.340918 +0530,
105,0,105,0,201.7424055999145,,201.71448029996827,5,201.7424055999145,201.7424055999145,0.01578080002218485,202.9141791999573,[-0.17833333333333334],[0.32166666666666666],[1],[0],[0],[1.1842013000277802],2,001,2024-10-10_15h47.11.406,Visual Search Experiment,2024.1.5,None,2024-10-10 15h47.27.340918 +0530,
106,0,106,0,202.97636139998212,,202.91648039990105,10,202.97636139998212,202.97636139998212,0.03628529992420226,206.1813978999853,[-0.5233333333333333],[-0.2866666666666667],[1],[0],[0],[3.228902000002563],2,001,2024-10-10_15h47.11.406,Visual Search Experiment,2024.1.5,None,2024-10-10 15h47.27.340918 +0530,
107,0,107,0,206.21063869993668,,206.1842327999184,5,206.21063869993668,206.21063869993668,0.014112700009718537,207.36625249998178,[0.40166666666666667],[-0.2633333333333333],[1],[0],[0],[1.1681840000674129],2,001,2024-10-10_15h47.11.406,Visual Search Experiment,2024.1.5,None,2024-10-10 15h47.27.340918 +0530,
108,0,108,0,207.4280235999031,,207.36854769999627,10,207.4280235999031,207.4280235999031,0.036057300050742924,208.78391140000895,[0.14333333333333334],[0.115],[1],[0],[0],[1.3795359000796452],2,001,2024-10-10_15h47.11.406,Visual Search Experiment,2024.1.5,None,2024-10-10 15h47.27.340918 +0530,
109,0,109,0,208.82912299991585,,208.7877214999171,5,208.82912299991585,208.82912299991585,0.02101199992466718,210.00036629999522,[-0.2833333333333333],[-0.05],[1],[0],[0],[1.1923481000121683],2,001,2024-10-10_15h47.11.406,Visual Search Experiment,2024.1.5,None,2024-10-10 15h47.27.340918 +0530,
110,0,110,0,210.0455991999479,,210.00289040000644,5,210.0455991999479,210.0455991999479,0.018120500026270747,212.09926299995277,[0.06],[0.15],[1],[0],[0],[2.0785584000404924],2,001,2024-10-10_15h47.11.406,Visual Search Experiment,2024.1.5,None,2024-10-10 15h47.27.340918 +0530,
111,0,111,0,212.16329419997055,,212.1015947998967,10,212.16329419997055,212.16329419997055,0.03495440003462136,214.15092499996535,[-0.48333333333333334],[-0.043333333333333335],[1],[0],[0],[2.014709400013089],2,001,2024-10-10_15h47.11.406,Visual Search Experiment,2024.1.5,None,2024-10-10 15h47.27.340918 +0530,
112,0,112,0,214.21418159990571,,214.15364989999216,10,214.21418159990571,214.21418159990571,0.03265729988925159,216.01851849991363,[-0.03],[0.355],[1],[0],[0],[1.8324179999763146],2,001,2024-10-10_15h47.11.406,Visual Search Experiment,2024.1.5,None,2024-10-10 15h47.27.340918 +0530,
113,0,113,0,216.06528039998375,,216.02140859991778,5,216.06528039998375,216.06528039998375,0.020230900030583143,217.7545633999398,[0.23666666666666666],[0.23],[1],[0],[0],[1.713221300044097],2,001,2024-10-10_15h47.11.406,Visual Search Experiment,2024.1.5,None,2024-10-10 15h47.27.340918 +0530,
114,0,114,0,217.81526830000803,,217.75698899989948,10,217.81526830000803,217.81526830000803,0.03768010006751865,219.13599749992136,[-0.4116666666666667],[-0.19333333333333333],[1],[0],[0],[1.3415116999531165],2,001,2024-10-10_15h47.11.406,Visual Search Experiment,2024.1.5,None,2024-10-10 15h47.27.340918 +0530,
115,0,115,0,219.18241319991648,,219.13829709996935,5,219.18241319991648,219.18241319991648,0.0196773000061512,220.83868679997977,[0.02666666666666667],[0.37],[1],[0],[0],[1.6808990000281483],2,001,2024-10-10_15h47.11.406,Visual Search Experiment,2024.1.5,None,2024-10-10 15h47.27.340918 +0530,
116,0,116,0,220.8999000999611,,220.8413811000064,10,220.8999000999611,220.8999000999611,0.030613399925641716,222.35484399995767,[0.175],[-0.15],[1],[0],[0],[1.483066999935545],2,001,2024-10-10_15h47.11.406,Visual Search Experiment,2024.1.5,None,2024-10-10 15h47.27.340918 +0530,
117,0,117,0,222.41743439994752,,222.35714899993036,10,222.41743439994752,222.41743439994752,0.027998399920761585,225.2393404999748,[-0.20666666666666667],[-0.4116666666666667],[1],[0],[0],[2.8544544999022037],2,001,2024-10-10_15h47.11.406,Visual Search Experiment,2024.1.5,None,2024-10-10 15h47.27.340918 +0530,
118,0,118,0,225.30124379997142,,225.24164809996728,10,225.30124379997142,225.30124379997142,0.038903600070625544,226.93883459991775,[0.08833333333333333],[0.26166666666666666],[1],[0],[0],[1.6585943000391126],2,001,2024-10-10_15h47.11.406,Visual Search Experiment,2024.1.5,None,2024-10-10 15h47.27.340918 +0530,
119,0,119,0,227.00227799999993,,226.9415748999454,10,227.00227799999993,227.00227799999993,0.030615099938586354,230.5743489000015,[0.14],[0.09],[1],[0],[0],[3.6026200000196695],2,001,2024-10-10_15h47.11.406,Visual Search Experiment,2024.1.5,None,2024-10-10 15h47.27.340918 +0530,
120,0,120,0,230.60362670000177,,230.5769293999765,5,230.60362670000177,230.60362670000177,0.016490999958477914,231.72776389995124,[-0.38],[0.12833333333333333],[1],[0],[0],[1.1345492000691593],2,001,2024-10-10_15h47.11.406,Visual Search Experiment,2024.1.5,None,2024-10-10 15h47.27.340918 +0530,
121,0,121,0,231.7712245999137,,231.7301126999082,5,231.7712245999137,231.7712245999137,0.0182562000118196,233.57544729998335,[0.18666666666666668],[-0.33666666666666667],[1],[0],[0],[1.827418199973181],2,001,2024-10-10_15h47.11.406,Visual Search Experiment,2024.1.5,None,2024-10-10 15h47.27.340918 +0530,
122,0,122,0,233.62172799999826,,233.57776709995233,5,233.62172799999826,233.62172799999826,0.019535899977199733,234.89240459993016,[-0.07],[-0.24],[1],[0],[0],[1.295384999946691],2,001,2024-10-10_15h47.11.406,Visual Search Experiment,2024.1.5,None,2024-10-10 15h47.27.340918 +0530,
123,0,123,0,234.92206259991508,,234.89469929994084,5,234.92206259991508,234.92206259991508,0.015338000026531518,235.97656939993612,[0.06333333333333334],[0.21],[1],[0],[0],[1.0667533000232652],2,001,2024-10-10_15h47.11.406,Visual Search Experiment,2024.1.5,None,2024-10-10 15h47.27.340918 +0530,
124,0,124,0,236.02239369996823,,235.97882829990704,5,236.02239369996823,236.02239369996823,0.019387800013646483,237.4941762998933,[-0.31833333333333336],[-0.2783333333333333],[1],[0],[0],[1.4962000000523403],2,001,2024-10-10_15h47.11.406,Visual Search Experiment,2024.1.5,None,2024-10-10 15h47.27.340918 +0530,
125,0,125,0,237.55662399996072,,237.49648609990254,10,237.55662399996072,237.55662399996072,0.03297469997778535,239.6449029999785,[-0.16333333333333333],[0.435],[1],[0],[0],[2.1153976999921724],2,001,2024-10-10_15h47.11.406,Visual Search Experiment,2024.1.5,None,2024-10-10 15h47.27.340918 +0530,
126,0,126,0,239.70741599996109,,239.647637499962,10,239.70741599996109,239.70741599996109,0.032231600023806095,241.24638099991716,[-0.275],[0.09],[1],[0],[0],[1.5667088000336662],2,001,2024-10-10_15h47.11.406,Visual Search Experiment,2024.1.5,None,2024-10-10 15h47.27.340918 +0530,
127,0,127,0,241.30782959994394,,241.24884909996763,10,241.30782959994394,241.30782959994394,0.0328892000252381,242.59594439994544,[-0.3416666666666667],[-0.26],[1],[0],[0],[1.3143663000082597],2,001,2024-10-10_15h47.11.406,Visual Search Experiment,2024.1.5,None,2024-10-10 15h47.27.340918 +0530,
128,0,128,0,242.64168080000672,,242.59875239990652,5,242.64168080000672,242.64168080000672,0.020691100042313337,244.0803471999243,[-0.47333333333333333],[0.375],[1],[0],[0],[1.4611533998977393],2,001,2024-10-10_15h47.11.406,Visual Search Experiment,2024.1.5,None,2024-10-10 15h47.27.340918 +0530,
129,0,129,0,244.12586039991584,,244.08286369999405,5,244.12586039991584,244.12586039991584,0.018916900036856532,246.53163879993372,[-0.4583333333333333],[0.05],[1],[0],[0],[2.4302557000191882],2,001,2024-10-10_15h47.11.406,Visual Search Experiment,2024.1.5,None,2024-10-10 15h47.27.340918 +0530,
130,0,130,0,246.560152299935,,246.5339563000016,5,246.560152299935,246.560152299935,0.01457470003515482,247.44791240000632,[0.3933333333333333],[0.31333333333333335],[1],[0],[0],[0.8995435000397265],2,001,2024-10-10_15h47.11.406,Visual Search Experiment,2024.1.5,None,2024-10-10 15h47.27.340918 +0530,
131,0,131,0,247.5104925999185,,247.45056919998024,10,247.5104925999185,247.5104925999185,0.03031509998254478,248.51555489993189,[0.14833333333333334],[0.0],[1],[0],[0],[1.0348608000203967],2,001,2024-10-10_15h47.11.406,Visual Search Experiment,2024.1.5,None,2024-10-10 15h47.27.340918 +0530,
132,0,132,0,248.57730519992765,,248.51783899997827,10,248.57730519992765,248.57730519992765,0.03694939997512847,249.33195859997068,[0.14833333333333334],[0.0],[1],[0],[0],[0.7772729999851435],2,001,2024-10-10_15h47.11.406,Visual Search Experiment,2024.1.5,None,2024-10-10 15h47.27.340918 +0530,
133,0,133,0,249.39455159998033,,249.334296099958,10,249.39455159998033,249.39455159998033,0.03573329991195351,252.067152399919,[0.31666666666666665],[0.01],[1],[0],[0],[2.697374099981971],2,001,2024-10-10_15h47.11.406,Visual Search Experiment,2024.1.5,None,2024-10-10 15h47.27.340918 +0530,
134,0,134,0,252.12871879991144,,252.06943569995929,10,252.12871879991144,252.12871879991144,0.029311099904589355,254.8675594999222,[-0.4766666666666667],[0.26666666666666666],[1],[0],[0],[2.7690286999568343],2,001,2024-10-10_15h47.11.406,Visual Search Experiment,2024.1.5,None,2024-10-10 15h47.27.340918 +0530,
135,0,135,0,254.89673749997746,,254.8713935998967,5,254.89673749997746,254.89673749997746,0.01589610008522868,258.61828069994226,[-0.18666666666666668],[-0.14333333333333334],[1],[0],[0],[3.7314867000095546],2,001,2024-10-10_15h47.11.406,Visual Search Experiment,2024.1.5,None,2024-10-10 15h47.27.340918 +0530,
136,0,136,0,258.681311299908,,258.6210729999002,10,258.681311299908,258.681311299908,0.03346519998740405,260.23609849996865,[-0.025],[0.205],[1],[0],[0],[1.5818196000764146],2,001,2024-10-10_15h47.11.406,Visual Search Experiment,2024.1.5,None,2024-10-10 15h47.27.340918 +0530,
137,0,137,0,260.2982951999875,,260.2384830999654,10,260.2982951999875,260.2982951999875,0.034101300057955086,261.50203859992325,[-0.045],[0.2866666666666667],[1],[0],[0],[1.2298090000404045],2,001,2024-10-10_15h47.11.406,Visual Search Experiment,2024.1.5,None,2024-10-10 15h47.27.340918 +0530,
138,0,138,0,261.56559419992846,,261.50506649992894,10,261.56559419992846,261.56559419992846,0.03578979999292642,263.2388459999347,[-0.10666666666666667],[-0.395],[1],[0],[0],[1.697963900049217],2,001,2024-10-10_15h47.11.406,Visual Search Experiment,2024.1.5,None,2024-10-10 15h47.27.340918 +0530,
139,0,139,0,263.30002510000486,,263.2415764000034,10,263.30002510000486,263.30002510000486,0.030706900055520236,265.97203569998965,[0.27],[0.435],[1],[0],[0],[2.700175300007686],2,001,2024-10-10_15h47.11.406,Visual Search Experiment,2024.1.5,None,2024-10-10 15h47.27.340918 +0530,
140,0,140,0,266.0348255999852,,265.97455199994147,10,266.0348255999852,266.0348255999852,0.030665299971587956,267.85615679994226,[-0.03166666666666667],[-0.3333333333333333],[1],[0],[0],[1.8511973998975009],2,001,2024-10-10_15h47.11.406,Visual Search Experiment,2024.1.5,None,2024-10-10 15h47.27.340918 +0530,
141,0,141,0,267.9017931999406,,267.8584739000071,5,267.9017931999406,267.9017931999406,0.01988909998908639,269.2897512000054,[-0.355],[-0.14],[1],[0],[0],[1.4116156999953091],2,001,2024-10-10_15h47.11.406,Visual Search Experiment,2024.1.5,None,2024-10-10 15h47.27.340918 +0530,
142,0,142,0,269.3528048999142,,269.2920215999475,10,269.3528048999142,269.3528048999142,0.038735699956305325,270.63971719995607,[0.15833333333333333],[0.31166666666666665],[1],[0],[0],[1.309230100014247],2,001,2024-10-10_15h47.11.406,Visual Search Experiment,2024.1.5,None,2024-10-10 15h47.27.340918 +0530,
143,0,143,0,270.68618909991346,,270.642299399944,5,270.68618909991346,270.68618909991346,0.01713489997200668,272.4413758999435,[0.18833333333333332],[0.4066666666666667],[1],[0],[0],[1.7823763999622315],2,001,2024-10-10_15h47.11.406,Visual Search Experiment,2024.1.5,None,2024-10-10 15h47.27.340918 +0530,
144,0,144,0,272.48702499992214,,272.4437531000003,5,272.48702499992214,272.48702499992214,0.01797929999884218,274.275588999968,[0.4266666666666667],[-0.41333333333333333],[1],[0],[0],[1.8141610000748187],2,001,2024-10-10_15h47.11.406,Visual Search Experiment,2024.1.5,None,2024-10-10 15h47.27.340918 +0530,
145,0,145,0,274.3210013000062,,274.27787479991093,5,274.3210013000062,274.3210013000062,0.019009499927051365,275.9421812999062,[0.4866666666666667],[0.18833333333333332],[1],[0],[0],[1.6456052999710664],2,001,2024-10-10_15h47.11.406,Visual Search Experiment,2024.1.5,None,2024-10-10 15h47.27.340918 +0530,
146,0,146,0,276.0050997999497,,275.9444765999215,10,276.0050997999497,276.0050997999497,0.02946919994428754,277.443381399964,[0.375],[0.415],[1],[0],[0],[1.4696721999207512],2,001,2024-10-10_15h47.11.406,Visual Search Experiment,2024.1.5,None,2024-10-10 15h47.27.340918 +0530,
147,0,147,0,277.48892969998997,,277.4456992999185,5,277.48892969998997,277.48892969998997,0.017154500004835427,279.7608263998991,[-0.32],[0.24333333333333335],[1],[0],[0],[2.298247699975036],2,001,2024-10-10_15h47.11.406,Visual Search Experiment,2024.1.5,None,2024-10-10 15h47.27.340918 +0530,
148,0,148,0,279.8232851999346,,279.76314319996163,10,279.8232851999346,279.8232851999346,0.02757869998458773,282.4959210999077,[0.28833333333333333],[0.35],[1],[0],[0],[2.7050171999726444],2,001,2024-10-10_15h47.11.406,Visual Search Experiment,2024.1.5,None,2024-10-10 15h47.27.340918 +0530,
149,0,149,0,282.54142999998294,,282.5003694999032,5,282.54142999998294,282.54142999998294,0.014622300048358738,283.8285027999664,[0.013333333333333334],[0.16166666666666665],[1],[0],[0],[1.3138602999970317],2,001,2024-10-10_15h47.11.406,Visual Search Experiment,2024.1.5,None,2024-10-10 15h47.27.340918 +0530,
150,0,150,0,283.87482209992595,,283.83132319990546,10,283.87482209992595,283.87482209992595,0.027385000023059547,284.83002989995293,[-0.005],[0.16166666666666665],[1],[0],[0],[0.9717362000374123],2,001,2024-10-10_15h47.11.406,Visual Search Experiment,2024.1.5,None,2024-10-10 15h47.27.340918 +0530,
151,0,151,0,284.87491239991505,,284.8323545999592,10,284.87491239991505,284.87491239991505,0.030141600058414042,286.4130686999997,[-0.08833333333333333],[0.42],[1],[0],[0],[1.5508553000399843],2,001,2024-10-10_15h47.11.406,Visual Search Experiment,2024.1.5,None,2024-10-10 15h47.27.340918 +0530,
152,0,152,0,286.45891019992996,,286.41556369990576,5,286.45891019992996,286.45891019992996,0.018894599983468652,288.23233609995805,[0.19833333333333333],[0.11666666666666667],[1],[0],[0],[1.7982007999671623],2,001,2024-10-10_15h47.11.406,Visual Search Experiment,2024.1.5,None,2024-10-10 15h47.27.340918 +0530,
153,0,153,0,288.2930809999816,,288.2346365998965,10,288.2930809999816,288.2930809999816,0.034476200002245605,303.38724720000755,[0.006666666666666667],[-0.03333333333333333],[1],[0],[0],[15.118076200014912],2,001,2024-10-10_15h47.11.406,Visual Search Experiment,2024.1.5,None,2024-10-10 15h47.27.340918 +0530,
154,0,154,0,303.4322017999366,,303.391164099914,10,303.4322017999366,303.4322017999366,0.028485100017860532,305.4203528999351,[-0.14],[0.46166666666666667],[1],[0],[0],[2.0013112000888214],2,001,2024-10-10_15h47.11.406,Visual Search Experiment,2024.1.5,None,2024-10-10 15h47.27.340918 +0530,
155,0,155,0,305.44953549990896,,305.4227206999203,5,305.44953549990896,305.44953549990896,0.018417999963276088,306.67197469994426,[0.3333333333333333],[-0.04666666666666667],[1],[0],[0],[1.2309499999973923],2,001,2024-10-10_15h47.11.406,Visual Search Experiment,2024.1.5,None,2024-10-10 15h47.27.340918 +0530,
156,0,156,0,306.7337562999455,,306.6742757000029,10,306.7337562999455,306.7337562999455,0.032768100034445524,308.22141469991766,[0.005],[-0.39],[1],[0],[0],[1.5146114999661222],2,001,2024-10-10_15h47.11.406,Visual Search Experiment,2024.1.5,None,2024-10-10 15h47.27.340918 +0530,
157,0,157,0,308.28429369989317,,308.2238137999084,10,308.28429369989317,308.28429369989317,0.03086780000012368,309.9738041999517,[-0.11333333333333333],[0.18666666666666668],[1],[0],[0],[1.7192446000408381],2,001,2024-10-10_15h47.11.406,Visual Search Experiment,2024.1.5,None,2024-10-10 15h47.27.340918 +0530,
158,0,158,0,310.03462749999017,,309.9782708999701,10,310.03462749999017,310.03462749999017,0.03176839998923242,311.53903979994357,[0.22833333333333333],[0.2866666666666667],[1],[0],[0],[1.5296251000836492],2,001,2024-10-10_15h47.11.406,Visual Search Experiment,2024.1.5,None,2024-10-10 15h47.27.340918 +0530,
159,0,159,0,311.58552339999005,,311.54154379991814,10,311.58552339999005,311.58552339999005,0.031796300085261464,313.3399704999756,[0.06666666666666667],[0.18666666666666668],[1],[0],[0],[1.76687980000861],2,001,2024-10-10_15h47.11.406,Visual Search Experiment,2024.1.5,None,2024-10-10 15h47.27.340918 +0530,
160,0,160,0,313.36948559992015,,313.34228539990727,5,313.36948559992015,313.36948559992015,0.014666000031866133,315.39215369999874,[-0.17666666666666667],[-0.058333333333333334],[1],[0],[0],[2.0354864000109956],2,001,2024-10-10_15h47.11.406,Visual Search Experiment,2024.1.5,None,2024-10-10 15h47.27.340918 +0530,
161,0,161,0,315.43695989996195,,315.3944272999652,10,315.43695989996195,315.43695989996195,0.02766310004517436,319.36077249993104,[-0.2633333333333333],[-0.48833333333333334],[1],[0],[0],[3.9389074000064284],2,001,2024-10-10_15h47.11.406,Visual Search Experiment,2024.1.5,None,2024-10-10 15h47.27.340918 +0530,
162,0,162,0,319.40514789998997,,319.3631018999731,5,319.40514789998997,319.40514789998997,0.017393599962815642,320.877565999981,[-0.32],[-0.2816666666666667],[1],[0],[0],[1.4973452999256551],2,001,2024-10-10_15h47.11.406,Visual Search Experiment,2024.1.5,None,2024-10-10 15h47.27.340918 +0530,
163,0,163,0,320.93920849997085,,320.88023439992685,10,320.93920849997085,320.93920849997085,0.034560399944894016,322.3634100999916,[-0.475],[0.135],[1],[0],[0],[1.4489848000230268],2,001,2024-10-10_15h47.11.406,Visual Search Experiment,2024.1.5,None,2024-10-10 15h47.27.340918 +0530,
164,0,164,0,322.4067081999965,,322.3663869999582,5,322.4067081999965,322.4067081999965,0.01736729999538511,324.3114246999612,[-0.11666666666666667],[0.4066666666666667],[1],[0],[0],[1.9280090000247583],2,001,2024-10-10_15h47.11.406,Visual Search Experiment,2024.1.5,None,2024-10-10 15h47.27.340918 +0530,
165,0,165,0,324.3739441999933,,324.31369589990936,10,324.3739441999933,324.3739441999933,0.028127599973231554,325.9284642999992,[-0.415],[-0.08],[1],[0],[0],[1.5868400000035763],2,001,2024-10-10_15h47.11.406,Visual Search Experiment,2024.1.5,None,2024-10-10 15h47.27.340918 +0530,
166,0,166,0,325.9909165999852,,325.9307748998981,10,325.9909165999852,325.9909165999852,0.030123300035484135,326.86227519996464,[0.185],[0.09],[1],[0],[0],[0.901648800005205],2,001,2024-10-10_15h47.11.406,Visual Search Experiment,2024.1.5,None,2024-10-10 15h47.27.340918 +0530,
167,0,167,0,326.89116479991935,,326.86461089993827,5,326.89116479991935,326.89116479991935,0.01445289992261678,328.04695150000043,[-0.16166666666666665],[0.205],[1],[0],[0],[1.1679983999347314],2,001,2024-10-10_15h47.11.406,Visual Search Experiment,2024.1.5,None,2024-10-10 15h47.27.340918 +0530,
168,0,168,0,328.10882819991093,,328.0492247999646,10,328.10882819991093,328.10882819991093,0.031090299948118627,329.9300198999699,[-0.42333333333333334],[0.10333333333333333],[1],[0],[0],[1.8499587000114843],2,001,2024-10-10_15h47.11.406,Visual Search Experiment,2024.1.5,None,2024-10-10 15h47.27.340918 +0530,
169,0,169,0,329.99269779992756,,329.9323095999425,10,329.99269779992756,329.99269779992756,0.027400300023145974,331.1628797999583,[-0.105],[0.12],[1],[0],[0],[1.203470400068909],2,001,2024-10-10_15h47.11.406,Visual Search Experiment,2024.1.5,None,2024-10-10 15h47.27.340918 +0530,
170,0,170,0,331.20975679997355,,331.1655979999341,5,331.20975679997355,331.20975679997355,0.014211699948646128,333.16666129999794,[-0.085],[-0.22166666666666668],[1],[0],[0],[1.9871707999845967],2,001,2024-10-10_15h47.11.406,Visual Search Experiment,2024.1.5,None,2024-10-10 15h47.27.340918 +0530,
171,0,171,0,333.2105444999179,,333.1689679999836,5,333.2105444999179,333.2105444999179,0.016395000042393804,334.41538079991005,[0.32666666666666666],[0.105],[1],[0],[0],[1.2302925999974832],2,001,2024-10-10_15h47.11.406,Visual Search Experiment,2024.1.5,None,2024-10-10 15h47.27.340918 +0530,
172,0,172,0,334.4444402999943,,334.4177032998996,5,334.4444402999943,334.4444402999943,0.01460689993109554,335.49934969993774,[-0.11166666666666666],[0.07666666666666666],[1],[0],[0],[1.0672376999864355],2,001,2024-10-10_15h47.11.406,Visual Search Experiment,2024.1.5,None,2024-10-10 15h47.27.340918 +0530,
173,0,173,0,335.5449676999124,,335.5022749999771,10,335.5449676999124,335.5449676999124,0.027112499927170575,338.1990955999354,[0.37166666666666665],[0.055],[1],[0],[0],[2.6699923999840394],2,001,2024-10-10_15h47.11.406,Visual Search Experiment,2024.1.5,None,2024-10-10 15h47.27.340918 +0530,
174,0,174,0,338.2458742999006,,338.2015383999096,10,338.2458742999006,338.2458742999006,0.027081600041128695,340.1839307999471,[-0.021666666666666667],[-0.028333333333333332],[1],[0],[0],[1.9555920999264345],2,001,2024-10-10_15h47.11.406,Visual Search Experiment,2024.1.5,None,2024-10-10 15h47.27.340918 +0530,
175,0,175,0,340.2135048999917,,340.1862184999045,5,340.2135048999917,340.2135048999917,0.015138000017032027,341.3843797999434,[-0.235],[0.2633333333333333],[1],[0],[0],[1.183312299894169],2,001,2024-10-10_15h47.11.406,Visual Search Experiment,2024.1.5,None,2024-10-10 15h47.27.340918 +0530,
176,0,176,0,341.4470453999238,,341.38665499992203,10,341.4470453999238,341.4470453999238,0.032504200004041195,343.15117569989525,[-0.4033333333333333],[-0.38666666666666666],[1],[0],[0],[1.732257700059563],2,001,2024-10-10_15h47.11.406,Visual Search Experiment,2024.1.5,None,2024-10-10 15h47.27.340918 +0530,
177,0,177,0,343.214315899997,,343.1540906999726,10,343.214315899997,343.214315899997,0.03166899993084371,346.4373260999564,[0.4583333333333333],[0.45166666666666666],[1],[0],[0],[3.251784700085409],2,001,2024-10-10_15h47.11.406,Visual Search Experiment,2024.1.5,None,2024-10-10 15h47.27.340918 +0530,
178,0,178,0,346.48302039992996,,346.4396587999072,5,346.48302039992996,346.48302039992996,0.014914699946530163,348.28856479993556,[-0.23666666666666666],[-0.2],[1],[0],[0],[1.8339305000845343],2,001,2024-10-10_15h47.11.406,Visual Search Experiment,2024.1.5,None,2024-10-10 15h47.27.340918 +0530,
179,0,179,0,348.31666509993374,,348.29121679998934,5,348.31666509993374,348.31666509993374,0.014870500075630844,349.6708002999658,[0.11833333333333333],[-0.35333333333333333],[1],[0],[0],[1.3649753000354394],2,001,2024-10-10_15h47.11.406,Visual Search Experiment,2024.1.5,None,2024-10-10 15h47.27.340918 +0530,
180,0,180,0,349.73374589998275,,349.67432059999555,10,349.73374589998275,349.73374589998275,0.029059399967081845,351.1886835999321,[-0.08666666666666667],[0.3416666666666667],[1],[0],[0],[1.4856991999549791],2,001,2024-10-10_15h47.11.406,Visual Search Experiment,2024.1.5,None,2024-10-10 15h47.27.340918 +0530,
181,0,181,0,351.25141899997834,,351.1909492999548,10,351.25141899997834,351.25141899997834,0.02779060008469969,353.6562098999275,[0.46166666666666667],[0.25166666666666665],[1],[0],[0],[2.4377159000141546],2,001,2024-10-10_15h47.11.406,Visual Search Experiment,2024.1.5,None,2024-10-10 15h47.27.340918 +0530,
182,0,182,0,353.7186024999246,,353.6585091999732,10,353.7186024999246,353.7186024999246,0.027649899944663048,355.50667919998523,[-0.39666666666666667],[0.06],[1],[0],[0],[1.8206775999860838],2,001,2024-10-10_15h47.11.406,Visual Search Experiment,2024.1.5,None,2024-10-10 15h47.27.340918 +0530,
183,0,183,0,355.56941689993255,,355.5107411999488,10,355.56941689993255,355.56941689993255,0.03512899996712804,358.4918115999317,[-0.14],[0.4666666666666667],[1],[0],[0],[2.9466453000204638],2,001,2024-10-10_15h47.11.406,Visual Search Experiment,2024.1.5,None,2024-10-10 15h47.27.340918 +0530,
184,0,184,0,358.5208100999007,,358.4941190999234,5,358.5208100999007,358.5208100999007,0.015837600105442107,360.05862959998194,[-0.175],[-0.10833333333333334],[1],[0],[0],[1.548962900065817],2,001,2024-10-10_15h47.11.406,Visual Search Experiment,2024.1.5,None,2024-10-10 15h47.27.340918 +0530,
185,0,185,0,360.1214287999319,,360.0608867999399,10,360.1214287999319,360.1214287999319,0.03648869995959103,362.05864069995005,[0.26166666666666666],[-0.23833333333333334],[1],[0],[0],[1.9614411999937147],2,001,2024-10-10_15h47.11.406,Visual Search Experiment,2024.1.5,None,2024-10-10 15h47.27.340918 +0530,
186,0,186,0,362.1217951999279,,362.06084349995945,10,362.1217951999279,362.1217951999279,0.033032799954526126,364.3108903999673,[-0.11333333333333333],[0.2866666666666667],[1],[0],[0],[2.2171075000660494],2,001,2024-10-10_15h47.11.406,Visual Search Experiment,2024.1.5,None,2024-10-10 15h47.27.340918 +0530,
187,0,187,0,364.38972759991884,,364.31495849997737,10,364.38972759991884,364.38972759991884,0.03973290009889752,367.11459049989935,[0.25833333333333336],[-0.18],[1],[0],[0],[2.760117799974978],2,001,2024-10-10_15h47.11.406,Visual Search Experiment,2024.1.5,None,2024-10-10 15h47.27.340918 +0530,
188,0,188,0,367.1570569999749,,367.1183951999992,5,367.1570569999749,367.1570569999749,0.016322999959811568,372.3150222999975,[-0.37],[-0.3283333333333333],[1],[0],[0],[5.1807065000757575],2,001,2024-10-10_15h47.11.406,Visual Search Experiment,2024.1.5,None,2024-10-10 15h47.27.340918 +0530,
189,0,189,0,372.3596380999079,,372.31744019989856,5,372.3596380999079,372.3596380999079,0.01644899998791516,374.33135529991705,[0.18],[-0.18166666666666667],[1],[0],[0],[1.9977330999681726],2,001,2024-10-10_15h47.11.406,Visual Search Experiment,2024.1.5,None,2024-10-10 15h47.27.340918 +0530,
190,0,190,0,374.39346649998333,,374.3338821999496,10,374.39346649998333,374.39346649998333,0.0333677000598982,377.13079299998935,[-0.49166666666666664],[-0.46],[1],[0],[0],[2.763936100061983],2,001,2024-10-10_15h47.11.406,Visual Search Experiment,2024.1.5,None,2024-10-10 15h47.27.340918 +0530,
191,0,191,0,377.1779881999828,,377.1347075999947,5,377.1779881999828,377.1779881999828,0.023316800012253225,380.43442780000623,[-0.18],[-0.24166666666666667],[1],[0],[0],[3.2767708000028506],2,001,2024-10-10_15h47.11.406,Visual Search Experiment,2024.1.5,None,2024-10-10 15h47.27.340918 +0530,
192,0,192,0,380.4954936999129,,380.4374590999214,10,380.4954936999129,380.4954936999129,0.03569329995661974,386.0521344000008,[-0.245],[-0.06333333333333334],[1],[0],[0],[5.579223499982618],2,001,2024-10-10_15h47.11.406,Visual Search Experiment,2024.1.5,None,2024-10-10 15h47.27.340918 +0530,
193,0,193,0,386.0979335999582,,386.0546105999965,5,386.0979335999582,386.0979335999582,0.01826949999667704,387.83810679998714,[-0.445],[-0.03833333333333333],[1],[0],[0],[1.7654773000394925],2,001,2024-10-10_15h47.11.406,Visual Search Experiment,2024.1.5,None,2024-10-10 15h47.27.340918 +0530,
194,0,194,0,387.88222219992895,,387.8404116999591,5,387.88222219992895,387.88222219992895,0.020818399963900447,389.2869302999461,[0.04833333333333333],[0.3433333333333333],[1],[0],[0],[1.4259895998984575],2,001,2024-10-10_15h47.11.406,Visual Search Experiment,2024.1.5,None,2024-10-10 15h47.27.340918 +0530,
195,0,195,0,389.33263679989614,,389.2900269998936,10,389.33263679989614,389.33263679989614,0.030222199973650277,390.7202373999171,[0.08166666666666667],[0.22666666666666666],[1],[0],[0],[1.400224499986507],2,001,2024-10-10_15h47.11.406,Visual Search Experiment,2024.1.5,None,2024-10-10 15h47.27.340918 +0530,
196,0,196,0,390.78325139998924,,390.72253449994605,10,390.78325139998924,390.78325139998924,0.028429599944502115,393.18929669994395,[0.44333333333333336],[-0.45666666666666667],[1],[0],[0],[2.4383821999654174],2,001,2024-10-10_15h47.11.406,Visual Search Experiment,2024.1.5,None,2024-10-10 15h47.27.340918 +0530,
197,0,197,0,393.2175846999744,,393.1918064999627,5,393.2175846999744,393.2175846999744,0.014630299992859364,394.90597560000606,[-0.05333333333333334],[0.4816666666666667],[1],[0],[0],[1.6997821999248117],2,001,2024-10-10_15h47.11.406,Visual Search Experiment,2024.1.5,None,2024-10-10 15h47.27.340918 +0530,
198,0,198,0,394.9684492999222,,394.90888109989464,10,394.9684492999222,394.9684492999222,0.027580499998293817,397.5064259999199,[-0.48333333333333334],[0.215],[1],[0],[0],[2.570224200026132],2,001,2024-10-10_15h47.11.406,Visual Search Experiment,2024.1.5,None,2024-10-10 15h47.27.340918 +0530,
199,0,199,0,397.5692366999574,,397.50897530000657,10,397.5692366999574,397.5692366999574,0.030853600008413196,399.07377589994576,[-0.13666666666666666],[-0.14166666666666666],[1],[0],[0],[1.5342116999672726],2,001,2024-10-10_15h47.11.406,Visual Search Experiment,2024.1.5,None,2024-10-10 15h47.27.340918 +0530,
