trials.thisRepN,trials.thisTrialN,trials.thisN,trials.thisIndex,thisRow.t,notes,trial.started,num_distr,Fixation.started,target.started,mouse.started,trial.stopped,mouse.x,mouse.y,mouse.leftButton,mouse.midButton,mouse.rightButton,mouse.time,participant,session,date,expName,psychopyVersion,frameRate,expStart,
0,0,0,0,0.04417699994519353,,0.015609199996106327,5,0.04417699994519353,0.04417699994519353,0.030381000018678606,452.159892900032,[-0.43333333333333335],[0.3516666666666667],[1],[0],[0],[452.12876930006314],3,001,2024-10-10_15h56.36.079,Visual Search Experiment,2024.1.5,None,2024-10-10 15h56.50.359916 +0530,
1,0,1,0,452.2052228000248,,452.1628802999621,5,452.2052228000248,452.2052228000248,0.01613310002721846,454.4096118999878,[0.27],[0.4533333333333333],[1],[0],[0],[2.2309281999478117],3,001,2024-10-10_15h56.36.079,Visual Search Experiment,2024.1.5,None,2024-10-10 15h56.50.359916 +0530,
2,0,2,0,454.455830299994,,454.4120529999491,10,454.455830299994,454.455830299994,0.03167719999328256,456.1431799000129,[0.395],[-0.17],[1],[0],[0],[1.6996296000434086],3,001,2024-10-10_15h56.36.079,Visual Search Experiment,2024.1.5,None,2024-10-10 15h56.50.359916 +0530,
3,0,3,0,456.1733497000532,,456.145486399997,5,456.1733497000532,456.1733497000532,0.015617000055499375,457.1436967999907,[0.23833333333333334],[0.085],[1],[0],[0],[0.9828849999466911],3,001,2024-10-10_15h56.36.079,Visual Search Experiment,2024.1.5,None,2024-10-10 15h56.50.359916 +0530,
4,0,4,0,457.19015929999296,,457.14599530003034,10,457.19015929999296,457.19015929999296,0.029528999933972955,459.01326789997984,[-0.17833333333333334],[-0.3233333333333333],[1],[0],[0],[1.837508000084199],3,001,2024-10-10_15h56.36.079,Visual Search Experiment,2024.1.5,None,2024-10-10 15h56.50.359916 +0530,
5,0,5,0,459.0576571000274,,459.0173759999452,10,459.0576571000274,459.0576571000274,0.028080400079488754,460.7456146000186,[0.07666666666666666],[0.37833333333333335],[1],[0],[0],[1.7008727999636903],3,001,2024-10-10_15h56.36.079,Visual Search Experiment,2024.1.5,None,2024-10-10 15h56.50.359916 +0530,
6,0,6,0,460.791805600049,,460.74816960003227,10,460.791805600049,460.791805600049,0.028188099968247116,462.6964115999872,[-0.17333333333333334],[-0.35833333333333334],[1],[0],[0],[1.9203616000013426],3,001,2024-10-10_15h56.36.079,Visual Search Experiment,2024.1.5,None,2024-10-10 15h56.50.359916 +0530,
7,0,7,0,462.7427246000152,,462.69875370000955,10,462.7427246000152,462.7427246000152,0.028205799986608326,463.96331989998,[0.04666666666666667],[-0.32666666666666666],[0],[0],[1],[1.2366303000599146],3,001,2024-10-10_15h56.36.079,Visual Search Experiment,2024.1.5,None,2024-10-10 15h56.50.359916 +0530,
8,0,8,0,463.99334080005065,,463.9659202999901,5,463.99334080005065,463.99334080005065,0.01506960007827729,465.9151350000175,[-0.21],[0.27666666666666667],[1],[0],[0],[1.9343078000238165],3,001,2024-10-10_15h56.36.079,Visual Search Experiment,2024.1.5,None,2024-10-10 15h56.50.359916 +0530,
9,0,9,0,465.96063650003634,,465.9178349999711,10,465.96063650003634,465.96063650003634,0.02756509999744594,467.31543249997776,[-0.03666666666666667],[0.39666666666666667],[1],[0],[0],[1.370311600039713],3,001,2024-10-10_15h56.36.079,Visual Search Experiment,2024.1.5,None,2024-10-10 15h56.50.359916 +0530,
10,0,10,0,467.36096109997015,,467.3177747000009,10,467.36096109997015,467.36096109997015,0.028222499997355044,469.1664760999847,[-0.17],[0.008333333333333333],[1],[0],[0],[1.8207434000214562],3,001,2024-10-10_15h56.36.079,Visual Search Experiment,2024.1.5,None,2024-10-10 15h56.50.359916 +0530,
11,0,11,0,469.2118667999748,,469.1698367999634,10,469.2118667999748,469.2118667999748,0.02887949999421835,470.2001694999635,[0.49333333333333335],[0.08666666666666667],[1],[0],[0],[1.0027407000306994],3,001,2024-10-10_15h56.36.079,Visual Search Experiment,2024.1.5,None,2024-10-10 15h56.50.359916 +0530,
12,0,12,0,470.2453778999625,,470.20250569994096,10,470.2453778999625,470.2453778999625,0.027967299916781485,472.0160718000261,[0.005],[-0.3616666666666667],[1],[0],[0],[1.785902899922803],3,001,2024-10-10_15h56.36.079,Visual Search Experiment,2024.1.5,None,2024-10-10 15h56.50.359916 +0530,
13,0,13,0,472.063208400039,,472.0184278000379,5,472.063208400039,472.063208400039,0.015029800008051097,473.618541099946,[0.2],[0.2683333333333333],[1],[0],[0],[1.5853397001046687],3,001,2024-10-10_15h56.36.079,Visual Search Experiment,2024.1.5,None,2024-10-10 15h56.50.359916 +0530,
14,0,14,0,473.6465281000128,,473.62089110002853,5,473.6465281000128,473.6465281000128,0.016172199975699186,474.61860159994103,[-0.38166666666666665],[0.31166666666666665],[1],[0],[0],[0.9818735999288037],3,001,2024-10-10_15h56.36.079,Visual Search Experiment,2024.1.5,None,2024-10-10 15h56.50.359916 +0530,
15,0,15,0,474.647972799954,,474.62115340004675,5,474.647972799954,474.647972799954,0.017251999932341278,476.25096880004276,[-0.13333333333333333],[-0.33166666666666667],[1],[0],[0],[1.612864499911666],3,001,2024-10-10_15h56.36.079,Visual Search Experiment,2024.1.5,None,2024-10-10 15h56.50.359916 +0530,
16,0,16,0,476.28109880001284,,476.25335270003416,5,476.28109880001284,476.28109880001284,0.014519199961796403,477.687620599987,[0.4033333333333333],[-0.12666666666666668],[1],[0],[0],[1.419978899997659],3,001,2024-10-10_15h56.36.079,Visual Search Experiment,2024.1.5,None,2024-10-10 15h56.50.359916 +0530,
17,0,17,0,477.71520640002564,,477.68993740004953,5,477.71520640002564,477.71520640002564,0.014761000056751072,480.1203785999678,[0.02],[0.43666666666666665],[1],[0],[0],[2.415809900034219],3,001,2024-10-10_15h56.36.079,Visual Search Experiment,2024.1.5,None,2024-10-10 15h56.50.359916 +0530,
18,0,18,0,480.14952580002137,,480.1235016999999,5,480.14952580002137,480.14952580002137,0.014990300056524575,481.55623170000035,[0.04833333333333333],[-0.3383333333333333],[1],[0],[0],[1.4177852000575513],3,001,2024-10-10_15h56.36.079,Visual Search Experiment,2024.1.5,None,2024-10-10 15h56.50.359916 +0530,
19,0,19,0,481.5830858000554,,481.56001070002094,5,481.5830858000554,481.5830858000554,0.01468590006697923,483.02098619996104,[0.25333333333333335],[-0.265],[0],[0],[1],[1.4467988000251353],3,001,2024-10-10_15h56.36.079,Visual Search Experiment,2024.1.5,None,2024-10-10 15h56.50.359916 +0530,
20,0,20,0,483.0500063999789,,483.02330769994296,5,483.0500063999789,483.0500063999789,0.016843499965034425,484.0544464000268,[0.21333333333333335],[-0.32666666666666666],[0],[0],[1],[1.0145730999065563],3,001,2024-10-10_15h56.36.079,Visual Search Experiment,2024.1.5,None,2024-10-10 15h56.50.359916 +0530,
21,0,21,0,484.10110880003776,,484.05676289997064,10,484.10110880003776,484.10110880003776,0.028722899965941906,485.4888213999802,[-0.39],[0.26],[1],[0],[0],[1.4036199999973178],3,001,2024-10-10_15h56.36.079,Visual Search Experiment,2024.1.5,None,2024-10-10 15h56.50.359916 +0530,
22,0,22,0,485.534949199995,,485.49170220003,10,485.534949199995,485.534949199995,0.02860550000332296,486.7573177999584,[0.06333333333333334],[0.3566666666666667],[1],[0],[0],[1.2378380000591278],3,001,2024-10-10_15h56.36.079,Visual Search Experiment,2024.1.5,None,2024-10-10 15h56.50.359916 +0530,
23,0,23,0,486.8190718999831,,486.759668600047,10,486.8190718999831,486.8190718999831,0.031091699958778918,489.00614690000657,[-0.115],[-0.37833333333333335],[1],[0],[0],[2.21569000009913],3,001,2024-10-10_15h56.36.079,Visual Search Experiment,2024.1.5,None,2024-10-10 15h56.50.359916 +0530,
24,0,24,0,489.0527244999539,,489.0087960000383,10,489.0527244999539,489.0527244999539,0.030744099989533424,490.640062600025,[0.5066666666666667],[-0.26166666666666666],[1],[0],[0],[1.6010299999034032],3,001,2024-10-10_15h56.36.079,Visual Search Experiment,2024.1.5,None,2024-10-10 15h56.50.359916 +0530,
25,0,25,0,490.7031421000138,,490.642420600052,10,490.7031421000138,490.7031421000138,0.027863900060765445,493.0434938999824,[0.02666666666666667],[0.4533333333333333],[1],[0],[0],[2.3731570000527427],3,001,2024-10-10_15h56.36.079,Visual Search Experiment,2024.1.5,None,2024-10-10 15h56.50.359916 +0530,
26,0,26,0,493.08751540002413,,493.04775779997,5,493.08751540002413,493.08751540002413,0.02358229993842542,495.2762498999946,[-0.3466666666666667],[-0.37666666666666665],[1],[0],[0],[2.2055828999727964],3,001,2024-10-10_15h56.36.079,Visual Search Experiment,2024.1.5,None,2024-10-10 15h56.50.359916 +0530,
27,0,27,0,495.33874839998316,,495.2785901000025,10,495.33874839998316,495.33874839998316,0.027979100006632507,497.4434755999828,[-0.23],[0.43333333333333335],[1],[0],[0],[2.137212699977681],3,001,2024-10-10_15h56.36.079,Visual Search Experiment,2024.1.5,None,2024-10-10 15h56.50.359916 +0530,
28,0,28,0,497.48967020004056,,497.4458286999725,5,497.48967020004056,497.48967020004056,0.01594219997059554,499.8442841999931,[0.39666666666666667],[0.03],[1],[0],[0],[2.382800299907103],3,001,2024-10-10_15h56.36.079,Visual Search Experiment,2024.1.5,None,2024-10-10 15h56.50.359916 +0530,
29,0,29,0,499.87376520002726,,499.8468870000215,5,499.87376520002726,499.87376520002726,0.01457310002297163,502.12875270005316,[0.48333333333333334],[0.01],[1],[0],[0],[2.2675605000695214],3,001,2024-10-10_15h56.36.079,Visual Search Experiment,2024.1.5,None,2024-10-10 15h56.50.359916 +0530,
30,0,30,0,502.17459820001386,,502.13108690001536,5,502.17459820001386,502.17459820001386,0.015120800002478063,505.2313108999515,[-0.43833333333333335],[0.07166666666666667],[1],[0],[0],[3.085362200043164],3,001,2024-10-10_15h56.36.079,Visual Search Experiment,2024.1.5,None,2024-10-10 15h56.50.359916 +0530,
31,0,31,0,505.27610460005235,,505.2347373999655,5,505.27610460005235,505.27610460005235,0.018640800029970706,508.6833426000085,[-0.49833333333333335],[-0.3283333333333333],[1],[0],[0],[3.430625900044106],3,001,2024-10-10_15h56.36.079,Visual Search Experiment,2024.1.5,None,2024-10-10 15h56.50.359916 +0530,
32,0,32,0,508.7274838000303,,508.6857120000059,5,508.7274838000303,508.7274838000303,0.018838300020433962,510.0488164999988,[0.16666666666666666],[-0.06166666666666667],[1],[0],[0],[1.3445756000000983],3,001,2024-10-10_15h56.36.079,Visual Search Experiment,2024.1.5,None,2024-10-10 15h56.50.359916 +0530,
33,0,33,0,510.1114088000031,,510.0511908000335,10,510.1114088000031,510.1114088000031,0.0289300000295043,513.5339328999398,[-0.47],[0.16],[1],[0],[0],[3.454107200028375],3,001,2024-10-10_15h56.36.079,Visual Search Experiment,2024.1.5,None,2024-10-10 15h56.50.359916 +0530,
34,0,34,0,513.5955102000153,,513.5364911999786,10,513.5955102000153,513.5955102000153,0.02793139999266714,515.9516519999597,[-0.43666666666666665],[-0.445],[1],[0],[0],[2.3874692999524996],3,001,2024-10-10_15h56.36.079,Visual Search Experiment,2024.1.5,None,2024-10-10 15h56.50.359916 +0530,
35,0,35,0,515.9965612000087,,515.9539862000383,10,515.9965612000087,515.9965612000087,0.028275199932977557,519.4528413000517,[-0.016666666666666666],[-0.04833333333333333],[1],[0],[0],[3.4707991000032052],3,001,2024-10-10_15h56.36.079,Visual Search Experiment,2024.1.5,None,2024-10-10 15h56.50.359916 +0530,
36,0,36,0,519.4813519000309,,519.4551988999592,5,519.4813519000309,519.4813519000309,0.014969399897381663,520.8852660000557,[0.51],[-0.35833333333333334],[1],[0],[0],[1.4152405000058934],3,001,2024-10-10_15h56.36.079,Visual Search Experiment,2024.1.5,None,2024-10-10 15h56.50.359916 +0530,
37,0,37,0,520.9488084999612,,520.8876048000529,10,520.9488084999612,520.9488084999612,0.02903360000345856,522.6041838000529,[0.11833333333333333],[0.18666666666666668],[1],[0],[0],[1.687573799979873],3,001,2024-10-10_15h56.36.079,Visual Search Experiment,2024.1.5,None,2024-10-10 15h56.50.359916 +0530,
38,0,38,0,522.6493219999829,,522.6066789999604,10,522.6493219999829,522.6493219999829,0.027946299989707768,526.2706305000465,[-0.495],[0.475],[1],[0],[0],[3.6362726000370458],3,001,2024-10-10_15h56.36.079,Visual Search Experiment,2024.1.5,None,2024-10-10 15h56.50.359916 +0530,
39,0,39,0,526.3172592000337,,526.2731010999996,5,526.3172592000337,526.3172592000337,0.016453000018373132,527.3236604999984,[0.06],[0.24166666666666667],[1],[0],[0],[1.0343748999293894],3,001,2024-10-10_15h56.36.079,Visual Search Experiment,2024.1.5,None,2024-10-10 15h56.50.359916 +0530,
40,0,40,0,527.3677610999439,,527.3260822000448,5,527.3677610999439,527.3677610999439,0.016945800045505166,528.5596113000065,[0.3466666666666667],[-0.06666666666666667],[1],[0],[0],[1.2167173000052571],3,001,2024-10-10_15h56.36.079,Visual Search Experiment,2024.1.5,None,2024-10-10 15h56.50.359916 +0530,
41,0,41,0,528.601798000047,,528.5636739999754,5,528.601798000047,528.601798000047,0.020943700103089213,529.8899672999978,[-0.26166666666666666],[0.36],[1],[0],[0],[1.3059868999989703],3,001,2024-10-10_15h56.36.079,Visual Search Experiment,2024.1.5,None,2024-10-10 15h56.50.359916 +0530,
42,0,42,0,529.9188311999897,,529.8930278000189,5,529.9188311999897,529.9188311999897,0.015702500008046627,530.92432989995,[0.3616666666666667],[-0.02],[1],[0],[0],[1.0160031999694183],3,001,2024-10-10_15h56.36.079,Visual Search Experiment,2024.1.5,None,2024-10-10 15h56.50.359916 +0530,
43,0,43,0,530.9691578999627,,530.9269308999646,10,530.9691578999627,530.9691578999627,0.027989499969407916,532.1728339999681,[0.058333333333333334],[-0.16],[1],[0],[0],[1.2181333000771701],3,001,2024-10-10_15h56.36.079,Visual Search Experiment,2024.1.5,None,2024-10-10 15h56.50.359916 +0530,
44,0,44,0,532.2368913999526,,532.1753323000157,10,532.2368913999526,532.2368913999526,0.030709700076840818,533.6407952000154,[-0.015],[-0.2683333333333333],[1],[0],[0],[1.4350382999982685],3,001,2024-10-10_15h56.36.079,Visual Search Experiment,2024.1.5,None,2024-10-10 15h56.50.359916 +0530,
45,0,45,0,533.7036710999673,,533.6433857999509,10,533.7036710999673,533.7036710999673,0.028414899948984385,536.0418625000166,[0.36],[-0.495],[1],[0],[0],[2.370430799899623],3,001,2024-10-10_15h56.36.079,Visual Search Experiment,2024.1.5,None,2024-10-10 15h56.50.359916 +0530,
46,0,46,0,536.0879897000268,,536.044239699957,5,536.0879897000268,536.0879897000268,0.01761919993441552,537.5122501000296,[0.39666666666666667],[0.14166666666666666],[1],[0],[0],[1.4503665999509394],3,001,2024-10-10_15h56.36.079,Visual Search Experiment,2024.1.5,None,2024-10-10 15h56.50.359916 +0530,
47,0,47,0,537.5560523000313,,537.5146346000256,5,537.5560523000313,537.5560523000313,0.013577700010500848,538.976218799944,[-0.165],[-0.36833333333333335],[1],[0],[0],[1.4482822000281885],3,001,2024-10-10_15h56.36.079,Visual Search Experiment,2024.1.5,None,2024-10-10 15h56.50.359916 +0530,
48,0,48,0,539.0226670999546,,538.9785907999612,10,539.0226670999546,539.0226670999546,0.027389900060370564,540.677129699965,[0.25],[-0.35333333333333333],[1],[0],[0],[1.6714322000043467],3,001,2024-10-10_15h56.36.079,Visual Search Experiment,2024.1.5,None,2024-10-10 15h56.50.359916 +0530,
49,0,49,0,540.7236241999781,,540.6794779000338,5,540.7236241999781,540.7236241999781,0.017952300026081502,542.0608161999844,[-0.43333333333333335],[-0.22166666666666668],[1],[0],[0],[1.3636594000272453],3,001,2024-10-10_15h56.36.079,Visual Search Experiment,2024.1.5,None,2024-10-10 15h56.50.359916 +0530,
50,0,50,0,542.123504600022,,542.0631717999931,10,542.123504600022,542.123504600022,0.029026600066572428,543.6294275999535,[-0.2633333333333333],[0.41333333333333333],[1],[0],[0],[1.5374630000442266],3,001,2024-10-10_15h56.36.079,Visual Search Experiment,2024.1.5,None,2024-10-10 15h56.50.359916 +0530,
51,0,51,0,543.6742162000155,,543.6317661999492,5,543.6742162000155,543.6742162000155,0.017036500037647784,546.029358800035,[-0.505],[-0.23333333333333334],[1],[0],[0],[2.3808227999834344],3,001,2024-10-10_15h56.36.079,Visual Search Experiment,2024.1.5,None,2024-10-10 15h56.50.359916 +0530,
52,0,52,0,546.0756156999851,,546.0322342000436,10,546.0756156999851,546.0756156999851,0.029367599985562265,547.4482474999968,[-0.35],[0.43],[1],[0],[0],[1.3873514999868348],3,001,2024-10-10_15h56.36.079,Visual Search Experiment,2024.1.5,None,2024-10-10 15h56.50.359916 +0530,
53,0,53,0,547.5092305999715,,547.4506066000322,10,547.5092305999715,547.5092305999715,0.031169299967586994,549.3155713999877,[-0.3883333333333333],[0.33166666666666667],[1],[0],[0],[1.8339479999849573],3,001,2024-10-10_15h56.36.079,Visual Search Experiment,2024.1.5,None,2024-10-10 15h56.50.359916 +0530,
54,0,54,0,549.3767356999451,,549.3179104999872,10,549.3767356999451,549.3767356999451,0.029497000039555132,550.3982254000148,[-0.20333333333333334],[0.20333333333333334],[1],[0],[0],[1.0511426000157371],3,001,2024-10-10_15h56.36.079,Visual Search Experiment,2024.1.5,None,2024-10-10 15h56.50.359916 +0530,
55,0,55,0,550.4267682000063,,550.4007272999734,5,550.4267682000063,550.4267682000063,0.014760300051420927,552.3478667000309,[0.35333333333333333],[-0.31333333333333335],[1],[0],[0],[1.9325926000019535],3,001,2024-10-10_15h56.36.079,Visual Search Experiment,2024.1.5,None,2024-10-10 15h56.50.359916 +0530,
56,0,56,0,552.3775190999731,,552.3503548000008,5,552.3775190999731,552.3775190999731,0.01476730010472238,554.5159703999525,[-0.011666666666666667],[0.095],[1],[0],[0],[2.1510948999784887],3,001,2024-10-10_15h56.36.079,Visual Search Experiment,2024.1.5,None,2024-10-10 15h56.50.359916 +0530,
57,0,57,0,554.5458161999704,,554.5183632000117,5,554.5458161999704,554.5458161999704,0.014678100007586181,556.2824145000195,[0.13333333333333333],[0.2916666666666667],[1],[0],[0],[1.749687600065954],3,001,2024-10-10_15h56.36.079,Visual Search Experiment,2024.1.5,None,2024-10-10 15h56.50.359916 +0530,
58,0,58,0,556.3126533000031,,556.2847664000001,5,556.3126533000031,556.3126533000031,0.016490799956955016,558.8361308999592,[-0.215],[0.47333333333333333],[1],[0],[0],[2.5351248000515625],3,001,2024-10-10_15h56.36.079,Visual Search Experiment,2024.1.5,None,2024-10-10 15h56.50.359916 +0530,
59,0,59,0,558.8799575000303,,558.8384345000377,5,558.8799575000303,558.8799575000303,0.014505099970847368,560.3224717000267,[0.15166666666666667],[0.14666666666666667],[1],[0],[0],[1.4695649999193847],3,001,2024-10-10_15h56.36.079,Visual Search Experiment,2024.1.5,None,2024-10-10 15h56.50.359916 +0530,
60,0,60,0,560.3814979000017,,560.3261149999453,10,560.3814979000017,560.3814979000017,0.037795000011101365,561.5189568999922,[0.08666666666666667],[0.17],[1],[0],[0],[1.155363900004886],3,001,2024-10-10_15h56.36.079,Visual Search Experiment,2024.1.5,None,2024-10-10 15h56.50.359916 +0530,
61,0,61,0,561.5815683000255,,561.5217980999732,10,561.5815683000255,561.5815683000255,0.030794000020250678,563.6026725999545,[0.49333333333333335],[-0.3433333333333333],[1],[0],[0],[2.050747700035572],3,001,2024-10-10_15h56.36.079,Visual Search Experiment,2024.1.5,None,2024-10-10 15h56.50.359916 +0530,
62,0,62,0,563.6650552999927,,563.6051778000547,10,563.6650552999927,563.6650552999927,0.030149900005199015,565.5877488000551,[0.23666666666666666],[0.25166666666666665],[1],[0],[0],[1.9527858000947163],3,001,2024-10-10_15h56.36.079,Visual Search Experiment,2024.1.5,None,2024-10-10 15h56.50.359916 +0530,
63,0,63,0,565.6328879999928,,565.5907731000334,5,565.6328879999928,565.6328879999928,0.01744610001333058,567.370815500035,[-0.4683333333333333],[0.25166666666666665],[1],[0],[0],[1.762761399964802],3,001,2024-10-10_15h56.36.079,Visual Search Experiment,2024.1.5,None,2024-10-10 15h56.50.359916 +0530,
64,0,64,0,567.4003515000222,,567.3731478999835,5,567.4003515000222,567.4003515000222,0.01579370000399649,570.1235392000526,[0.26],[0.47333333333333333],[1],[0],[0],[2.7347275000065565],3,001,2024-10-10_15h56.36.079,Visual Search Experiment,2024.1.5,None,2024-10-10 15h56.50.359916 +0530,
65,0,65,0,570.1852199999848,,570.1267349000555,10,570.1852199999848,570.1852199999848,0.028873000061139464,571.8733154999791,[-0.30666666666666664],[-0.14333333333333334],[1],[0],[0],[1.7181792999617755],3,001,2024-10-10_15h56.36.079,Visual Search Experiment,2024.1.5,None,2024-10-10 15h56.50.359916 +0530,
66,0,66,0,571.9353626000229,,571.8757406000514,10,571.9353626000229,571.9353626000229,0.032766700023785233,574.3572623999789,[0.05],[-0.2783333333333333],[1],[0],[0],[2.449045700021088],3,001,2024-10-10_15h56.36.079,Visual Search Experiment,2024.1.5,None,2024-10-10 15h56.50.359916 +0530,
67,0,67,0,574.3861065000528,,574.3595929000294,5,574.3861065000528,574.3861065000528,0.01505449996329844,575.6585161000257,[-0.46166666666666667],[0.13166666666666665],[1],[0],[0],[1.2840435000834987],3,001,2024-10-10_15h56.36.079,Visual Search Experiment,2024.1.5,None,2024-10-10 15h56.50.359916 +0530,
68,0,68,0,575.7206978000468,,575.6609082999639,10,575.7206978000468,575.7206978000468,0.031344300019554794,577.1254142000107,[-0.41333333333333333],[-0.11],[1],[0],[0],[1.4334160999860615],3,001,2024-10-10_15h56.36.079,Visual Search Experiment,2024.1.5,None,2024-10-10 15h56.50.359916 +0530,
69,0,69,0,577.1873384000501,,577.1277827000013,10,577.1873384000501,577.1873384000501,0.03450680000241846,578.0570654999465,[-0.43833333333333335],[0.065],[1],[0],[0],[0.8950479000341147],3,001,2024-10-10_15h56.36.079,Visual Search Experiment,2024.1.5,None,2024-10-10 15h56.50.359916 +0530,
70,0,70,0,578.121215500054,,578.0596582000144,10,578.121215500054,578.121215500054,0.031181200058199465,579.108631900046,[0.25],[0.39],[1],[0],[0],[1.0180762999225408],3,001,2024-10-10_15h56.36.079,Visual Search Experiment,2024.1.5,None,2024-10-10 15h56.50.359916 +0530,
71,0,71,0,579.1554005000507,,579.1110202999553,10,579.1554005000507,579.1554005000507,0.029255100060254335,582.8097160999896,[-0.36666666666666664],[0.4583333333333333],[1],[0],[0],[3.6697435999521986],3,001,2024-10-10_15h56.36.079,Visual Search Experiment,2024.1.5,None,2024-10-10 15h56.50.359916 +0530,
72,0,72,0,582.8728874999797,,582.8126156999497,10,582.8728874999797,582.8728874999797,0.030496099963784218,584.2103201999562,[-0.41],[0.235],[1],[0],[0],[1.3675827999832109],3,001,2024-10-10_15h56.36.079,Visual Search Experiment,2024.1.5,None,2024-10-10 15h56.50.359916 +0530,
73,0,73,0,584.2400925999973,,584.2126571000554,5,584.2400925999973,584.2400925999973,0.015001000021584332,585.3946391999489,[-0.03666666666666667],[0.13666666666666666],[1],[0],[0],[1.1671922999667004],3,001,2024-10-10_15h56.36.079,Visual Search Experiment,2024.1.5,None,2024-10-10 15h56.50.359916 +0530,
74,0,74,0,585.4240027000196,,585.3971032999689,5,585.4240027000196,585.4240027000196,0.016042400035075843,586.2294401000254,[0.09833333333333333],[0.16833333333333333],[0],[0],[1],[0.8164998999563977],3,001,2024-10-10_15h56.36.079,Visual Search Experiment,2024.1.5,None,2024-10-10 15h56.50.359916 +0530,
75,0,75,0,586.274401600007,,586.2317768000066,10,586.274401600007,586.274401600007,0.028000400052405894,588.0960661999416,[0.3016666666666667],[0.02666666666666667],[1],[0],[0],[1.8365674000233412],3,001,2024-10-10_15h56.36.079,Visual Search Experiment,2024.1.5,None,2024-10-10 15h56.50.359916 +0530,
76,0,76,0,588.1418802000117,,588.0985800999915,5,588.1418802000117,588.1418802000117,0.017950600013136864,589.2463422999717,[0.3983333333333333],[0.3283333333333333],[1],[0],[0],[1.1297971000894904],3,001,2024-10-10_15h56.36.079,Visual Search Experiment,2024.1.5,None,2024-10-10 15h56.50.359916 +0530,
77,0,77,0,589.3089088000124,,589.248707300052,10,589.3089088000124,589.3089088000124,0.03345580003224313,590.8128216000041,[0.3383333333333333],[-0.21333333333333335],[1],[0],[0],[1.5309506000485271],3,001,2024-10-10_15h56.36.079,Visual Search Experiment,2024.1.5,None,2024-10-10 15h56.50.359916 +0530,
78,0,78,0,590.8595126,,590.815711400006,5,590.8595126,590.8595126,0.015979199903085828,592.031353599974,[0.10333333333333333],[-0.19333333333333333],[1],[0],[0],[1.1997644000221044],3,001,2024-10-10_15h56.36.079,Visual Search Experiment,2024.1.5,None,2024-10-10 15h56.50.359916 +0530,
79,0,79,0,592.0933884000406,,592.0335483000381,10,592.0933884000406,592.0933884000406,0.029046399984508753,593.1315390999662,[-0.21],[0.015],[1],[0],[0],[1.0691554999211803],3,001,2024-10-10_15h56.36.079,Visual Search Experiment,2024.1.5,None,2024-10-10 15h56.50.359916 +0530,
80,0,80,0,593.1601009999868,,593.13410809997,5,593.1601009999868,593.1601009999868,0.015474299900233746,594.2813881000038,[-0.415],[0.38],[1],[0],[0],[1.1320440999697894],3,001,2024-10-10_15h56.36.079,Visual Search Experiment,2024.1.5,None,2024-10-10 15h56.50.359916 +0530,
81,0,81,0,594.310827099951,,594.2839940999402,5,594.310827099951,594.310827099951,0.014987700036726892,595.6159531000303,[0.18833333333333332],[0.06833333333333333],[1],[0],[0],[1.3173707999521866],3,001,2024-10-10_15h56.36.079,Visual Search Experiment,2024.1.5,None,2024-10-10 15h56.50.359916 +0530,
82,0,82,0,595.661431799992,,595.6184298000298,5,595.661431799992,595.661431799992,0.019912199932150543,597.2014521999517,[-0.21],[0.3933333333333333],[1],[0],[0],[1.5631307000294328],3,001,2024-10-10_15h56.36.079,Visual Search Experiment,2024.1.5,None,2024-10-10 15h56.50.359916 +0530,
83,0,83,0,597.2452754999977,,597.204305900028,5,597.2452754999977,597.2452754999977,0.01754059991799295,598.8009001000319,[0.03666666666666667],[0.17166666666666666],[1],[0],[0],[1.579697799985297],3,001,2024-10-10_15h56.36.079,Visual Search Experiment,2024.1.5,None,2024-10-10 15h56.50.359916 +0530,
84,0,84,0,598.8636582000181,,598.8032464999706,10,598.8636582000181,598.8636582000181,0.029349599964916706,600.2345866999822,[-0.265],[-0.051666666666666666],[1],[0],[0],[1.4022210999391973],3,001,2024-10-10_15h56.36.079,Visual Search Experiment,2024.1.5,None,2024-10-10 15h56.50.359916 +0530,
85,0,85,0,600.262989699957,,600.2369967999402,5,600.262989699957,600.262989699957,0.015063800034113228,601.3342499999562,[-0.035],[0.25666666666666665],[1],[0],[0],[1.0824152000714093],3,001,2024-10-10_15h56.36.079,Visual Search Experiment,2024.1.5,None,2024-10-10 15h56.50.359916 +0530,
86,0,86,0,601.3968684000429,,601.3367918999866,10,601.3968684000429,601.3968684000429,0.03133569995407015,602.5509899000172,[0.41],[0.011666666666666667],[1],[0],[0],[1.183260599966161],3,001,2024-10-10_15h56.36.079,Visual Search Experiment,2024.1.5,None,2024-10-10 15h56.50.359916 +0530,
87,0,87,0,602.6142106000334,,602.5536846000468,10,602.6142106000334,602.6142106000334,0.028223500004969537,604.2023646000307,[0.495],[0.043333333333333335],[1],[0],[0],[1.62097230006475],3,001,2024-10-10_15h56.36.079,Visual Search Experiment,2024.1.5,None,2024-10-10 15h56.50.359916 +0530,
88,0,88,0,604.2648311000085,,604.2047700999537,10,604.2648311000085,604.2648311000085,0.03836780006531626,605.4188669000287,[-0.32],[0.085],[1],[0],[0],[1.176019400008954],3,001,2024-10-10_15h56.36.079,Visual Search Experiment,2024.1.5,None,2024-10-10 15h56.50.359916 +0530,
89,0,89,0,605.4654462999897,,605.4215351999737,5,605.4654462999897,605.4654462999897,0.015650800080038607,606.8040786000201,[-0.4066666666666667],[-0.31],[1],[0],[0],[1.3671577000059187],3,001,2024-10-10_15h56.36.079,Visual Search Experiment,2024.1.5,None,2024-10-10 15h56.50.359916 +0530,
90,0,90,0,606.8657987000188,,606.8064300999977,10,606.8657987000188,606.8657987000188,0.029533700086176395,608.7045994000509,[0.35],[-0.16666666666666666],[1],[0],[0],[1.8689361000433564],3,001,2024-10-10_15h56.36.079,Visual Search Experiment,2024.1.5,None,2024-10-10 15h56.50.359916 +0530,
91,0,91,0,608.732883800054,,608.7070233999984,5,608.732883800054,608.732883800054,0.016216999967582524,609.8040301000001,[0.06333333333333334],[-0.14666666666666667],[1],[0],[0],[1.0811303000664338],3,001,2024-10-10_15h56.36.079,Visual Search Experiment,2024.1.5,None,2024-10-10 15h56.50.359916 +0530,
92,0,92,0,609.8672104999423,,609.8070040999446,10,609.8672104999423,609.8672104999423,0.03283559996634722,611.8550415999489,[-0.20166666666666666],[-0.49],[1],[0],[0],[2.016071799909696],3,001,2024-10-10_15h56.36.079,Visual Search Experiment,2024.1.5,None,2024-10-10 15h56.50.359916 +0530,
93,0,93,0,611.9177271999652,,611.8575345999561,10,611.9177271999652,611.9177271999652,0.03236579999793321,613.3217447999632,[-0.36666666666666664],[0.015],[1],[0],[0],[1.4321400000480935],3,001,2024-10-10_15h56.36.079,Visual Search Experiment,2024.1.5,None,2024-10-10 15h56.50.359916 +0530,
94,0,94,0,613.3687887999695,,613.32405689999,10,613.3687887999695,613.3687887999695,0.031182199949398637,614.2390250000171,[-0.25333333333333335],[0.028333333333333332],[1],[0],[0],[0.8836854000110179],3,001,2024-10-10_15h56.36.079,Visual Search Experiment,2024.1.5,None,2024-10-10 15h56.50.359916 +0530,
95,0,95,0,614.2856328999624,,614.2429368000012,5,614.2856328999624,614.2856328999624,0.018374199979007244,615.3075214000419,[-0.4666666666666667],[-0.225],[1],[0],[0],[1.0467317000729963],3,001,2024-10-10_15h56.36.079,Visual Search Experiment,2024.1.5,None,2024-10-10 15h56.50.359916 +0530,
96,0,96,0,615.3525652999524,,615.3101571999723,10,615.3525652999524,615.3525652999524,0.027980800019577146,616.4081554999575,[-0.4033333333333333],[0.22],[1],[0],[0],[1.0702304999576882],3,001,2024-10-10_15h56.36.079,Visual Search Experiment,2024.1.5,None,2024-10-10 15h56.50.359916 +0530,
97,0,97,0,616.4362941000145,,616.4104434000328,5,616.4362941000145,616.4362941000145,0.014839199953712523,618.540743599995,[0.3233333333333333],[0.4633333333333333],[1],[0],[0],[2.1157713999273255],3,001,2024-10-10_15h56.36.079,Visual Search Experiment,2024.1.5,None,2024-10-10 15h56.50.359916 +0530,
98,0,98,0,618.6037622999866,,618.5430516999913,10,618.6037622999866,618.6037622999866,0.028134700027294457,619.8248686000006,[-0.5],[-0.09],[1],[0],[0],[1.2539803999243304],3,001,2024-10-10_15h56.36.079,Visual Search Experiment,2024.1.5,None,2024-10-10 15h56.50.359916 +0530,
99,0,99,0,619.854079999961,,619.8271882999688,5,619.854079999961,619.854079999961,0.014719099970534444,621.4087024000473,[0.0016666666666666668],[-0.15833333333333333],[1],[0],[0],[1.5670279999030754],3,001,2024-10-10_15h56.36.079,Visual Search Experiment,2024.1.5,None,2024-10-10 15h56.50.359916 +0530,
100,0,100,0,621.4551250999793,,621.4112910999684,5,621.4551250999793,621.4551250999793,0.014887899975292385,622.6588455999736,[0.115],[-0.27166666666666667],[1],[0],[0],[1.2329686000011861],3,001,2024-10-10_15h56.36.079,Visual Search Experiment,2024.1.5,None,2024-10-10 15h56.50.359916 +0530,
101,0,101,0,622.705401299987,,622.6613192999503,5,622.705401299987,622.705401299987,0.018212099908851087,625.7431334999856,[0.205],[0.02],[1],[0],[0],[3.0637940999586135],3,001,2024-10-10_15h56.36.079,Visual Search Experiment,2024.1.5,None,2024-10-10 15h56.50.359916 +0530,
102,0,102,0,625.773126599961,,625.7453609999502,5,625.773126599961,625.773126599961,0.013397800037637353,628.0964650999522,[0.43166666666666664],[-0.46166666666666667],[1],[0],[0],[2.337948999949731],3,001,2024-10-10_15h56.36.079,Visual Search Experiment,2024.1.5,None,2024-10-10 15h56.50.359916 +0530,
103,0,103,0,628.1575024999911,,628.0987671000184,10,628.1575024999911,628.1575024999911,0.028028099914081395,629.9777411000105,[-0.22166666666666668],[0.19],[1],[0],[0],[1.8512432998977602],3,001,2024-10-10_15h56.36.079,Visual Search Experiment,2024.1.5,None,2024-10-10 15h56.50.359916 +0530,
104,0,104,0,630.024853699957,,629.980071399943,10,630.024853699957,630.024853699957,0.03197660006117076,631.7303396000061,[0.3933333333333333],[-0.215],[1],[0],[0],[1.718518799985759],3,001,2024-10-10_15h56.36.079,Visual Search Experiment,2024.1.5,None,2024-10-10 15h56.50.359916 +0530,
105,0,105,0,631.7919808999868,,631.7326684000436,10,631.7919808999868,631.7919808999868,0.031508599990047514,635.0811037999811,[0.25666666666666665],[0.04666666666666667],[1],[0],[0],[3.3172237999970093],3,001,2024-10-10_15h56.36.079,Visual Search Experiment,2024.1.5,None,2024-10-10 15h56.50.359916 +0530,
106,0,106,0,635.14371199999,,635.0836495000403,10,635.14371199999,635.14371199999,0.03170970000792295,637.7152090000454,[0.32166666666666666],[-0.25166666666666665],[1],[0],[0],[2.6002635000040755],3,001,2024-10-10_15h56.36.079,Visual Search Experiment,2024.1.5,None,2024-10-10 15h56.50.359916 +0530,
107,0,107,0,637.7775966000045,,637.7175839999691,10,637.7775966000045,637.7775966000045,0.03279990004375577,639.1496154000051,[-0.2816666666666667],[0.03833333333333333],[1],[0],[0],[1.3995215999893844],3,001,2024-10-10_15h56.36.079,Visual Search Experiment,2024.1.5,None,2024-10-10 15h56.50.359916 +0530,
108,0,108,0,639.1950299999444,,639.1519412000198,5,639.1950299999444,639.1950299999444,0.017886999994516373,640.6829194000456,[-0.4683333333333333],[0.45],[1],[0],[0],[1.51334720000159],3,001,2024-10-10_15h56.36.079,Visual Search Experiment,2024.1.5,None,2024-10-10 15h56.50.359916 +0530,
109,0,109,0,640.7455804999918,,640.6865852000192,10,640.7455804999918,640.7455804999918,0.03465419996064156,652.6365752000129,[-0.021666666666666667],[0.47333333333333333],[1],[0],[0],[11.915810100035742],3,001,2024-10-10_15h56.36.079,Visual Search Experiment,2024.1.5,None,2024-10-10 15h56.50.359916 +0530,
110,0,110,0,652.7003759000218,,652.6388922999613,10,652.7003759000218,652.7003759000218,0.027583900024183095,655.6557307000039,[0.36],[-0.2916666666666667],[1],[0],[0],[2.989264199975878],3,001,2024-10-10_15h56.36.079,Visual Search Experiment,2024.1.5,None,2024-10-10 15h56.50.359916 +0530,
111,0,111,0,655.6845025999937,,655.6584970999975,5,655.6845025999937,655.6845025999937,0.01504109997767955,656.9730860999553,[-0.14833333333333334],[0.16333333333333333],[1],[0],[0],[1.29996710002888],3,001,2024-10-10_15h56.36.079,Visual Search Experiment,2024.1.5,None,2024-10-10 15h56.50.359916 +0530,
112,0,112,0,657.0021115000127,,656.9755281000398,5,657.0021115000127,657.0021115000127,0.01455389999318868,658.4410540000536,[0.315],[0.43],[1],[0],[0],[1.4513791999779642],3,001,2024-10-10_15h56.36.079,Visual Search Experiment,2024.1.5,None,2024-10-10 15h56.50.359916 +0530,
113,0,113,0,658.4858998999698,,658.4439222000074,10,658.4858998999698,658.4858998999698,0.030325699946843088,659.6908258999465,[-0.285],[0.30833333333333335],[1],[0],[0],[1.217080199974589],3,001,2024-10-10_15h56.36.079,Visual Search Experiment,2024.1.5,None,2024-10-10 15h56.50.359916 +0530,
114,0,114,0,659.7530905000167,,659.6935020999517,10,659.7530905000167,659.7530905000167,0.027877600048668683,662.125337800011,[-0.09166666666666666],[-0.25333333333333335],[1],[0],[0],[2.4041959999594837],3,001,2024-10-10_15h56.36.079,Visual Search Experiment,2024.1.5,None,2024-10-10 15h56.50.359916 +0530,
115,0,115,0,662.1540535000386,,662.1277517999988,5,662.1540535000386,662.1540535000386,0.014958800049498677,663.4425431999844,[-0.03166666666666667],[0.26166666666666666],[1],[0],[0],[1.3001693000551313],3,001,2024-10-10_15h56.36.079,Visual Search Experiment,2024.1.5,None,2024-10-10 15h56.50.359916 +0530,
116,0,116,0,663.4712895000121,,663.4448235000018,5,663.4712895000121,663.4712895000121,0.018657999928109348,664.8463319999864,[0.3016666666666667],[0.22],[1],[0],[0],[1.382476200000383],3,001,2024-10-10_15h56.36.079,Visual Search Experiment,2024.1.5,None,2024-10-10 15h56.50.359916 +0530,
117,0,117,0,664.8888201999944,,664.8491473000031,5,664.8888201999944,664.8888201999944,0.0175319000845775,667.1606056999881,[-0.10666666666666667],[-0.45166666666666666],[1],[0],[0],[2.294278100016527],3,001,2024-10-10_15h56.36.079,Visual Search Experiment,2024.1.5,None,2024-10-10 15h56.50.359916 +0530,
118,0,118,0,667.222844199976,,667.1633377999533,10,667.222844199976,667.222844199976,0.031056300038471818,668.660665399977,[-0.07666666666666666],[0.39],[1],[0],[0],[1.4665343000087887],3,001,2024-10-10_15h56.36.079,Visual Search Experiment,2024.1.5,None,2024-10-10 15h56.50.359916 +0530,
119,0,119,0,668.7233309999574,,668.6629988000495,10,668.7233309999574,668.7233309999574,0.028562700026668608,669.5782522000372,[-0.03],[0.2816666666666667],[1],[0],[0],[0.886962000047788],3,001,2024-10-10_15h56.36.079,Visual Search Experiment,2024.1.5,None,2024-10-10 15h56.50.359916 +0530,
120,0,120,0,669.623706500046,,669.5806830000365,5,669.623706500046,669.623706500046,0.014714199933223426,670.8608099999838,[0.25666666666666665],[0.13166666666666665],[1],[0],[0],[1.265806999988854],3,001,2024-10-10_15h56.36.079,Visual Search Experiment,2024.1.5,None,2024-10-10 15h56.50.359916 +0530,
121,0,121,0,670.9241529999999,,670.8631359999999,10,670.9241529999999,670.9241529999999,0.03481640003155917,673.5616884999909,[0.028333333333333332],[-0.021666666666666667],[1],[0],[0],[2.6639029999496415],3,001,2024-10-10_15h56.36.079,Visual Search Experiment,2024.1.5,None,2024-10-10 15h56.50.359916 +0530,
122,0,122,0,673.625675200019,,673.5639979999978,10,673.625675200019,673.625675200019,0.03557059995364398,676.2474432999734,[-0.4083333333333333],[0.3466666666666667],[1],[0],[0],[2.648128699976951],3,001,2024-10-10_15h56.36.079,Visual Search Experiment,2024.1.5,None,2024-10-10 15h56.50.359916 +0530,
123,0,123,0,676.2930854000151,,676.249821000034,5,676.2930854000151,676.2930854000151,0.019698800053447485,678.148510399973,[0.07],[-0.37166666666666665],[1],[0],[0],[1.8792505000019446],3,001,2024-10-10_15h56.36.079,Visual Search Experiment,2024.1.5,None,2024-10-10 15h56.50.359916 +0530,
124,0,124,0,678.1769736999413,,678.1508199999807,5,678.1769736999413,678.1769736999413,0.0167304000351578,679.3315336999949,[0.0016666666666666668],[0.07666666666666666],[1],[0],[0],[1.1641841999953613],3,001,2024-10-10_15h56.36.079,Visual Search Experiment,2024.1.5,None,2024-10-10 15h56.50.359916 +0530,
125,0,125,0,679.394307199982,,679.3338514999487,10,679.394307199982,679.394307199982,0.027760399971157312,680.7686091000214,[-0.028333333333333332],[-0.16833333333333333],[1],[0],[0],[1.4070195000385866],3,001,2024-10-10_15h56.36.079,Visual Search Experiment,2024.1.5,None,2024-10-10 15h56.50.359916 +0530,
126,0,126,0,680.8113640999654,,680.7721663999837,5,680.8113640999654,680.8113640999654,0.015579200000502169,682.1833335000556,[0.225],[0.2866666666666667],[1],[0],[0],[1.3961507000494748],3,001,2024-10-10_15h56.36.079,Visual Search Experiment,2024.1.5,None,2024-10-10 15h56.50.359916 +0530,
127,0,127,0,682.2283383000176,,682.1856628999813,5,682.2283383000176,682.2283383000176,0.01501169998664409,684.3335468999576,[-0.37],[-0.3616666666666667],[1],[0],[0],[2.1332045999588445],3,001,2024-10-10_15h56.36.079,Visual Search Experiment,2024.1.5,None,2024-10-10 15h56.50.359916 +0530,
128,0,128,0,684.3959825000493,,684.3358690999448,10,684.3959825000493,684.3959825000493,0.027637099963612854,686.4200249999994,[0.18],[0.46166666666666667],[1],[0],[0],[2.0566689999541268],3,001,2024-10-10_15h56.36.079,Visual Search Experiment,2024.1.5,None,2024-10-10 15h56.50.359916 +0530,
129,0,129,0,686.4801189999562,,686.4239913000492,10,686.4801189999562,686.4801189999562,0.03528900002129376,688.586483299965,[0.43],[0.028333333333333332],[1],[0],[0],[2.1280457000248134],3,001,2024-10-10_15h56.36.079,Visual Search Experiment,2024.1.5,None,2024-10-10 15h56.50.359916 +0530,
130,0,130,0,688.6310086000012,,688.5888884000015,5,688.6310086000012,688.6310086000012,0.018080599955283105,689.7362349999603,[0.31166666666666665],[-0.33],[1],[0],[0],[1.1295594000257552],3,001,2024-10-10_15h56.36.079,Visual Search Experiment,2024.1.5,None,2024-10-10 15h56.50.359916 +0530,
131,0,131,0,689.7986945000011,,689.7385178999975,10,689.7986945000011,689.7986945000011,0.031040300033055246,691.1372392999474,[0.195],[0.20166666666666666],[1],[0],[0],[1.3676148999948055],3,001,2024-10-10_15h56.36.079,Visual Search Experiment,2024.1.5,None,2024-10-10 15h56.50.359916 +0530,
132,0,132,0,691.1991286999546,,691.1408249000087,10,691.1991286999546,691.1991286999546,0.029042699956335127,692.6241066999501,[0.4716666666666667],[0.17],[1],[0],[0],[1.4544904000358656],3,001,2024-10-10_15h56.36.079,Visual Search Experiment,2024.1.5,None,2024-10-10 15h56.50.359916 +0530,
133,0,133,0,692.682593400008,,692.6279805999948,10,692.682593400008,692.682593400008,0.030327700078487396,694.4528240000363,[-0.3416666666666667],[0.008333333333333333],[1],[0],[0],[1.7949925999855623],3,001,2024-10-10_15h56.36.079,Visual Search Experiment,2024.1.5,None,2024-10-10 15h56.50.359916 +0530,
134,0,134,0,694.5002018000232,,694.455118700047,10,694.5002018000232,694.5002018000232,0.02764240000396967,696.1408373999875,[-0.455],[-0.32],[1],[0],[0],[1.6579123999690637],3,001,2024-10-10_15h56.36.079,Visual Search Experiment,2024.1.5,None,2024-10-10 15h56.50.359916 +0530,
135,0,135,0,696.1838561999612,,696.1444565999554,5,696.1838561999612,696.1838561999612,0.015548900002613664,698.1548826999497,[0.0033333333333333335],[0.37833333333333335],[1],[0],[0],[1.9952692999504507],3,001,2024-10-10_15h56.36.079,Visual Search Experiment,2024.1.5,None,2024-10-10 15h56.50.359916 +0530,
136,0,136,0,698.1848156000488,,698.1574385999702,5,698.1848156000488,698.1848156000488,0.014988800045102835,699.4067489999579,[0.21666666666666667],[-0.13333333333333333],[1],[0],[0],[1.2345605000155047],3,001,2024-10-10_15h56.36.079,Visual Search Experiment,2024.1.5,None,2024-10-10 15h56.50.359916 +0530,
137,0,137,0,699.4688220999669,,699.4092565999599,10,699.4688220999669,699.4688220999669,0.027233100030571222,700.822586299968,[0.47833333333333333],[-0.43833333333333335],[1],[0],[0],[1.3863576999865472],3,001,2024-10-10_15h56.36.079,Visual Search Experiment,2024.1.5,None,2024-10-10 15h56.50.359916 +0530,
138,0,138,0,700.8535094000399,,700.8251731999917,5,700.8535094000399,700.8535094000399,0.017414400004781783,702.00756920001,[0.115],[0.12166666666666667],[1],[0],[0],[1.1652224999852479],3,001,2024-10-10_15h56.36.079,Visual Search Experiment,2024.1.5,None,2024-10-10 15h56.50.359916 +0530,
139,0,139,0,702.0530705000274,,702.0101188999834,5,702.0530705000274,702.0530705000274,0.015008799964562058,703.1577077000402,[-0.385],[0.2916666666666667],[1],[0],[0],[1.1328220000723377],3,001,2024-10-10_15h56.36.079,Visual Search Experiment,2024.1.5,None,2024-10-10 15h56.50.359916 +0530,
140,0,140,0,703.2033812999725,,703.1601084000431,5,703.2033812999725,703.2033812999725,0.01514050003606826,704.5581995999673,[-0.04],[0.295],[1],[0],[0],[1.3831715999403968],3,001,2024-10-10_15h56.36.079,Visual Search Experiment,2024.1.5,None,2024-10-10 15h56.50.359916 +0530,
141,0,141,0,704.5875753000146,,704.560534200049,5,704.5875753000146,704.5875753000146,0.01624730008188635,706.1260643999558,[-0.22166666666666668],[-0.155],[1],[0],[0],[1.5495516000082716],3,001,2024-10-10_15h56.36.079,Visual Search Experiment,2024.1.5,None,2024-10-10 15h56.50.359916 +0530,
142,0,142,0,706.154377699946,,706.128669800004,5,706.154377699946,706.154377699946,0.014779599965550005,707.1929154000245,[0.27666666666666667],[0.24333333333333335],[1],[0],[0],[1.04999129998032],3,001,2024-10-10_15h56.36.079,Visual Search Experiment,2024.1.5,None,2024-10-10 15h56.50.359916 +0530,
143,0,143,0,707.2389293999877,,707.1952587999403,5,707.2389293999877,707.2389293999877,0.014581499970518053,708.343465300044,[-0.4766666666666667],[-0.24],[1],[0],[0],[1.1338382000103593],3,001,2024-10-10_15h56.36.079,Visual Search Experiment,2024.1.5,None,2024-10-10 15h56.50.359916 +0530,
144,0,144,0,708.3891507999506,,708.3458523999434,10,708.3891507999506,708.3891507999506,0.02717100002337247,709.8266972999554,[-0.48333333333333334],[0.20833333333333334],[1],[0],[0],[1.4539266000501812],3,001,2024-10-10_15h56.36.079,Visual Search Experiment,2024.1.5,None,2024-10-10 15h56.50.359916 +0530,
145,0,145,0,709.8895367999794,,709.829051699955,10,709.8895367999794,709.8895367999794,0.03102739993482828,714.1956392000429,[0.26166666666666666],[-0.33],[1],[0],[0],[4.335684300051071],3,001,2024-10-10_15h56.36.079,Visual Search Experiment,2024.1.5,None,2024-10-10 15h56.50.359916 +0530,
146,0,146,0,714.2245802000398,,714.1983155000489,5,714.2245802000398,714.2245802000398,0.018102900008670986,715.5623831000412,[0.01],[0.405],[1],[0],[0],[1.3463385000359267],3,001,2024-10-10_15h56.36.079,Visual Search Experiment,2024.1.5,None,2024-10-10 15h56.50.359916 +0530,
147,0,147,0,715.591504400014,,715.5646827999735,5,715.591504400014,715.591504400014,0.01572849997319281,716.9980975999497,[-0.16333333333333333],[0.275],[1],[0],[0],[1.4176459999289364],3,001,2024-10-10_15h56.36.079,Visual Search Experiment,2024.1.5,None,2024-10-10 15h56.50.359916 +0530,
148,0,148,0,717.0585521999747,,717.0013518000487,10,717.0585521999747,717.0585521999747,0.027266400051303208,718.0118943999987,[-0.22333333333333333],[0.465],[1],[0],[0],[0.9838062999770045],3,001,2024-10-10_15h56.36.079,Visual Search Experiment,2024.1.5,None,2024-10-10 15h56.50.359916 +0530,
149,0,149,0,718.0592952000443,,718.0142056000186,10,718.0592952000443,718.0592952000443,0.030093400040641427,719.2296927999705,[-0.0033333333333333335],[0.23666666666666666],[1],[0],[0],[1.1855525999562815],3,001,2024-10-10_15h56.36.079,Visual Search Experiment,2024.1.5,None,2024-10-10 15h56.50.359916 +0530,
150,0,150,0,719.2768290999811,,719.2323949999409,5,719.2768290999811,719.2768290999811,0.01775550004094839,721.6318631999893,[-0.13166666666666665],[-0.35],[1],[0],[0],[2.3820043000159785],3,001,2024-10-10_15h56.36.079,Visual Search Experiment,2024.1.5,None,2024-10-10 15h56.50.359916 +0530,
151,0,151,0,721.6773611999815,,721.6341514999513,5,721.6773611999815,721.6773611999815,0.014526299899443984,723.066007400048,[0.09],[-0.016666666666666666],[1],[0],[0],[1.4175012999912724],3,001,2024-10-10_15h56.36.079,Visual Search Experiment,2024.1.5,None,2024-10-10 15h56.50.359916 +0530,
152,0,152,0,723.1115329000168,,723.0683348999592,10,723.1115329000168,723.1115329000168,0.02827619994059205,724.3319931000005,[0.3466666666666667],[0.17],[1],[0],[0],[1.2357018999755383],3,001,2024-10-10_15h56.36.079,Visual Search Experiment,2024.1.5,None,2024-10-10 15h56.50.359916 +0530,
153,0,153,0,724.395010999986,,724.3344213999808,10,724.395010999986,724.395010999986,0.031511400011368096,725.3485891999444,[0.4683333333333333],[0.30333333333333334],[1],[0],[0],[0.9830121999839321],3,001,2024-10-10_15h56.36.079,Visual Search Experiment,2024.1.5,None,2024-10-10 15h56.50.359916 +0530,
154,0,154,0,725.3955015999964,,725.3509005999658,5,725.3955015999964,725.3955015999964,0.016885600052773952,726.7826668999624,[0.4716666666666667],[-0.4766666666666667],[1],[0],[0],[1.4151147999800742],3,001,2024-10-10_15h56.36.079,Visual Search Experiment,2024.1.5,None,2024-10-10 15h56.50.359916 +0530,
155,0,155,0,726.8125818000408,,726.785386399948,5,726.8125818000408,726.8125818000408,0.01506650005467236,727.7176648000022,[0.015],[0.4],[1],[0],[0],[0.9174442000221461],3,001,2024-10-10_15h56.36.079,Visual Search Experiment,2024.1.5,None,2024-10-10 15h56.50.359916 +0530,
156,0,156,0,727.7799031999893,,727.7201340999454,10,727.7799031999893,727.7799031999893,0.02985440008342266,728.7013213000027,[0.125],[0.013333333333333334],[1],[0],[0],[0.951446000020951],3,001,2024-10-10_15h56.36.079,Visual Search Experiment,2024.1.5,None,2024-10-10 15h56.50.359916 +0530,
157,0,157,0,728.7638942999765,,728.7051155000227,10,728.7638942999765,728.7638942999765,0.0307594999903813,729.6013208000222,[-0.09666666666666666],[0.35333333333333333],[1],[0],[0],[0.8656593000050634],3,001,2024-10-10_15h56.36.079,Visual Search Experiment,2024.1.5,None,2024-10-10 15h56.50.359916 +0530,
158,0,158,0,729.6639894000255,,729.6037278999574,10,729.6639894000255,729.6639894000255,0.028022299986332655,731.0516613000073,[0.18666666666666668],[-0.006666666666666667],[1],[0],[0],[1.4201826000353321],3,001,2024-10-10_15h56.36.079,Visual Search Experiment,2024.1.5,None,2024-10-10 15h56.50.359916 +0530,
159,0,159,0,731.081017700024,,731.0541483999696,5,731.081017700024,731.081017700024,0.015266100061126053,732.0352372999769,[-0.16666666666666666],[0.105],[1],[0],[0],[0.9660963000496849],3,001,2024-10-10_15h56.36.079,Visual Search Experiment,2024.1.5,None,2024-10-10 15h56.50.359916 +0530,
160,0,160,0,732.0981744000455,,732.0384409000399,10,732.0981744000455,732.0981744000455,0.030480500077828765,733.6860619999934,[0.23833333333333334],[-0.13333333333333333],[1],[0],[0],[1.6176423999713734],3,001,2024-10-10_15h56.36.079,Visual Search Experiment,2024.1.5,None,2024-10-10 15h56.50.359916 +0530,
161,0,161,0,733.7322629999835,,733.6889355999883,5,733.7322629999835,733.7322629999835,0.01573320000898093,734.8705876000458,[-0.475],[-0.11666666666666667],[1],[0],[0],[1.1663350999588147],3,001,2024-10-10_15h56.36.079,Visual Search Experiment,2024.1.5,None,2024-10-10 15h56.50.359916 +0530,
162,0,162,0,734.9324954999611,,734.873966800049,10,734.9324954999611,734.9324954999611,0.03371059999335557,736.3880506999558,[-0.058333333333333334],[-0.11166666666666666],[1],[0],[0],[1.4817037000320852],3,001,2024-10-10_15h56.36.079,Visual Search Experiment,2024.1.5,None,2024-10-10 15h56.50.359916 +0530,
163,0,163,0,736.4163439000258,,736.3908425000263,5,736.4163439000258,736.4163439000258,0.014903699979186058,738.4738188999472,[-0.46166666666666667],[-0.14],[1],[0],[0],[2.068216499988921],3,001,2024-10-10_15h56.36.079,Visual Search Experiment,2024.1.5,None,2024-10-10 15h56.50.359916 +0530,
164,0,164,0,738.5175314999651,,738.476147599984,5,738.5175314999651,738.5175314999651,0.02095739997457713,739.4889709999552,[-0.10166666666666667],[-0.04833333333333333],[1],[0],[0],[0.9921411999966949],3,001,2024-10-10_15h56.36.079,Visual Search Experiment,2024.1.5,None,2024-10-10 15h56.50.359916 +0530,
165,0,165,0,739.517703199992,,739.4912850999972,5,739.517703199992,739.517703199992,0.014906099997460842,740.6889971999917,[0.4266666666666667],[-0.21],[1],[0],[0],[1.183059300063178],3,001,2024-10-10_15h56.36.079,Visual Search Experiment,2024.1.5,None,2024-10-10 15h56.50.359916 +0530,
166,0,166,0,740.7522991000442,,740.6913199999835,10,740.7522991000442,740.7522991000442,0.032354600029066205,741.956761199981,[-0.515],[0.24333333333333335],[1],[0],[0],[1.233248500037007],3,001,2024-10-10_15h56.36.079,Visual Search Experiment,2024.1.5,None,2024-10-10 15h56.50.359916 +0530,
167,0,167,0,742.0188169999747,,741.9594202999724,10,742.0188169999747,742.0188169999747,0.030796999926678836,743.0061063000467,[0.043333333333333335],[0.135],[1],[0],[0],[1.0161788000259548],3,001,2024-10-10_15h56.36.079,Visual Search Experiment,2024.1.5,None,2024-10-10 15h56.50.359916 +0530,
168,0,168,0,743.0690053999424,,743.0084415000165,10,743.0690053999424,743.0690053999424,0.02815339993685484,744.7066616000375,[-0.23],[-0.07833333333333334],[1],[0],[0],[1.670310900080949],3,001,2024-10-10_15h56.36.079,Visual Search Experiment,2024.1.5,None,2024-10-10 15h56.50.359916 +0530,
169,0,169,0,744.7366459999466,,744.7096422000322,5,744.7366459999466,744.7366459999466,0.017378699965775013,745.8083499999484,[0.051666666666666666],[0.32],[1],[0],[0],[1.081732099992223],3,001,2024-10-10_15h56.36.079,Visual Search Experiment,2024.1.5,None,2024-10-10 15h56.50.359916 +0530,
170,0,170,0,745.8537430999568,,745.8106851000339,10,745.8537430999568,745.8537430999568,0.027440000092610717,746.8414056999609,[-0.39],[0.4],[1],[0],[0],[1.0035511000314727],3,001,2024-10-10_15h56.36.079,Visual Search Experiment,2024.1.5,None,2024-10-10 15h56.50.359916 +0530,
171,0,171,0,746.9044143999927,,746.8437320999801,10,746.9044143999927,746.9044143999927,0.028144999989308417,748.5263703999808,[-0.19166666666666668],[-0.08333333333333333],[1],[0],[0],[1.6547108999220654],3,001,2024-10-10_15h56.36.079,Visual Search Experiment,2024.1.5,None,2024-10-10 15h56.50.359916 +0530,
172,0,172,0,748.5713794999756,,748.528682300006,10,748.5713794999756,748.5713794999756,0.02758170000743121,750.5090817000018,[0.28833333333333333],[0.4083333333333333],[1],[0],[0],[1.9531308999285102],3,001,2024-10-10_15h56.36.079,Visual Search Experiment,2024.1.5,None,2024-10-10 15h56.50.359916 +0530,
173,0,173,0,750.555480799987,,750.5114361000014,10,750.555480799987,750.555480799987,0.029049899894744158,753.9097416000441,[-0.3333333333333333],[-0.41833333333333333],[1],[0],[0],[3.3695519999600947],3,001,2024-10-10_15h56.36.079,Visual Search Experiment,2024.1.5,None,2024-10-10 15h56.50.359916 +0530,
174,0,174,0,753.9733576000435,,753.9121237000218,10,753.9733576000435,753.9733576000435,0.031246599974110723,754.9772553000366,[-0.4533333333333333],[-0.03833333333333333],[1],[0],[0],[1.0342145999893546],3,001,2024-10-10_15h56.36.079,Visual Search Experiment,2024.1.5,None,2024-10-10 15h56.50.359916 +0530,
175,0,175,0,755.0407293000026,,754.9796145999571,10,755.0407293000026,755.0407293000026,0.02834900002926588,756.2125055999495,[-0.19],[0.26166666666666666],[1],[0],[0],[1.2047940000193194],3,001,2024-10-10_15h56.36.079,Visual Search Experiment,2024.1.5,None,2024-10-10 15h56.50.359916 +0530,
176,0,176,0,756.2750531999627,,756.2149043000536,10,756.2750531999627,756.2750531999627,0.027372400043532252,757.8624670000281,[-0.245],[-0.14333333333333334],[1],[0],[0],[1.620319899986498],3,001,2024-10-10_15h56.36.079,Visual Search Experiment,2024.1.5,None,2024-10-10 15h56.50.359916 +0530,
177,0,177,0,757.9084823000012,,757.8659370000241,5,757.9084823000012,757.9084823000012,0.020247699925675988,759.0986904000165,[-0.445],[-0.013333333333333334],[1],[0],[0],[1.2128746000817046],3,001,2024-10-10_15h56.36.079,Visual Search Experiment,2024.1.5,None,2024-10-10 15h56.50.359916 +0530,
178,0,178,0,759.1586233000271,,759.1011776999803,10,759.1586233000271,759.1586233000271,0.03635890001896769,760.0627466000151,[0.045],[0.24166666666666667],[1],[0],[0],[0.9256614999612793],3,001,2024-10-10_15h56.36.079,Visual Search Experiment,2024.1.5,None,2024-10-10 15h56.50.359916 +0530,
179,0,179,0,760.0922425000463,,760.065057800035,5,760.0922425000463,760.0922425000463,0.014696099911816418,760.8293581999606,[0.035],[0.385],[1],[0],[0],[0.7498858999460936],3,001,2024-10-10_15h56.36.079,Visual Search Experiment,2024.1.5,None,2024-10-10 15h56.50.359916 +0530,
180,0,180,0,760.8594421000453,,760.8316714999964,5,760.8594421000453,760.8594421000453,0.0170652000233531,761.6306243999861,[0.17],[0.07],[1],[0],[0],[0.7821674000006169],3,001,2024-10-10_15h56.36.079,Visual Search Experiment,2024.1.5,None,2024-10-10 15h56.50.359916 +0530,
181,0,181,0,761.659967500018,,761.633083499968,5,761.659967500018,761.659967500018,0.015935600036755204,764.2994293000083,[0.36833333333333335],[0.465],[1],[0],[0],[2.650842500035651],3,001,2024-10-10_15h56.36.079,Visual Search Experiment,2024.1.5,None,2024-10-10 15h56.50.359916 +0530,
182,0,182,0,764.3280773999868,,764.3017297999468,5,764.3280773999868,764.3280773999868,0.015427200007252395,768.1658888000529,[0.13],[-0.03],[1],[0],[0],[3.8490411000093445],3,001,2024-10-10_15h56.36.079,Visual Search Experiment,2024.1.5,None,2024-10-10 15h56.50.359916 +0530,
183,0,183,0,768.212320700055,,768.1684351000004,5,768.212320700055,768.212320700055,0.014865400036796927,770.1507940000156,[-0.25833333333333336],[0.245],[1],[0],[0],[1.967663999996148],3,001,2024-10-10_15h56.36.079,Visual Search Experiment,2024.1.5,None,2024-10-10 15h56.50.359916 +0530,
184,0,184,0,770.1799680000404,,770.1531605999917,5,770.1799680000404,770.1799680000404,0.01604269992094487,771.3514062999748,[0.38],[0.43833333333333335],[1],[0],[0],[1.182494799955748],3,001,2024-10-10_15h56.36.079,Visual Search Experiment,2024.1.5,None,2024-10-10 15h56.50.359916 +0530,
185,0,185,0,771.4135586000048,,771.3537311999826,10,771.4135586000048,771.4135586000048,0.030715900007635355,772.6521733000409,[0.3283333333333333],[0.265],[1],[0],[0],[1.2679788999957964],3,001,2024-10-10_15h56.36.079,Visual Search Experiment,2024.1.5,None,2024-10-10 15h56.50.359916 +0530,
186,0,186,0,772.6978106000461,,772.6546366000548,5,772.6978106000461,772.6978106000461,0.017860300024040043,773.7843027999625,[-0.51],[0.4033333333333333],[1],[0],[0],[1.1121797000523657],3,001,2024-10-10_15h56.36.079,Visual Search Experiment,2024.1.5,None,2024-10-10 15h56.50.359916 +0530,
187,0,187,0,773.8478384000482,,773.7872547999723,10,773.8478384000482,773.8478384000482,0.0313315000385046,776.3689129999839,[0.03833333333333333],[0.1],[1],[0],[0],[2.551188600016758],3,001,2024-10-10_15h56.36.079,Visual Search Experiment,2024.1.5,None,2024-10-10 15h56.50.359916 +0530,
188,0,188,0,776.4154617999448,,776.3712601000443,5,776.4154617999448,776.4154617999448,0.014503999962471426,777.6200635000132,[0.17166666666666666],[0.39166666666666666],[1],[0],[0],[1.2343580999877304],3,001,2024-10-10_15h56.36.079,Visual Search Experiment,2024.1.5,None,2024-10-10 15h56.50.359916 +0530,
189,0,189,0,777.6826089000097,,777.6228952000383,10,777.6826089000097,777.6826089000097,0.03363999992143363,780.1553722999524,[-0.3283333333333333],[-0.46],[1],[0],[0],[2.4990779999643564],3,001,2024-10-10_15h56.36.079,Visual Search Experiment,2024.1.5,None,2024-10-10 15h56.50.359916 +0530,
190,0,190,0,780.2002452999586,,780.158045200049,5,780.2002452999586,780.2002452999586,0.01777629996649921,781.0553663000464,[-0.46],[-0.16833333333333333],[1],[0],[0],[0.8797953999601305],3,001,2024-10-10_15h56.36.079,Visual Search Experiment,2024.1.5,None,2024-10-10 15h56.50.359916 +0530,
191,0,191,0,781.1175725000212,,781.0576710000169,10,781.1175725000212,781.1175725000212,0.029506899998523295,782.8057867999887,[0.445],[0.345],[1],[0],[0],[1.7188460999168456],3,001,2024-10-10_15h56.36.079,Visual Search Experiment,2024.1.5,None,2024-10-10 15h56.50.359916 +0530,
192,0,192,0,782.851491700043,,782.8081458000233,5,782.851491700043,782.851491700043,0.01475659990683198,784.0391606000485,[0.14833333333333334],[0.205],[1],[0],[0],[1.2165365000255406],3,001,2024-10-10_15h56.36.079,Visual Search Experiment,2024.1.5,None,2024-10-10 15h56.50.359916 +0530,
193,0,193,0,784.0852492999984,,784.041514600045,5,784.0852492999984,784.0852492999984,0.016181300044991076,785.0065042000497,[-0.16],[0.2733333333333333],[1],[0],[0],[0.949104500003159],3,001,2024-10-10_15h56.36.079,Visual Search Experiment,2024.1.5,None,2024-10-10 15h56.50.359916 +0530,
194,0,194,0,785.0523264999501,,785.0089573999867,5,785.0523264999501,785.0523264999501,0.014464100007899106,786.5076982999453,[-0.31833333333333336],[-0.28],[1],[0],[0],[1.4844613999594003],3,001,2024-10-10_15h56.36.079,Visual Search Experiment,2024.1.5,None,2024-10-10 15h56.50.359916 +0530,
195,0,195,0,786.5695249999408,,786.5113967000507,10,786.5695249999408,786.5695249999408,0.02760560007300228,788.1073277000105,[0.465],[-0.07],[1],[0],[0],[1.5688274999847636],3,001,2024-10-10_15h56.36.079,Visual Search Experiment,2024.1.5,None,2024-10-10 15h56.50.359916 +0530,
196,0,196,0,788.1698496999452,,788.1096686000237,10,788.1698496999452,788.1698496999452,0.030884600011631846,796.9781940999674,[-0.015],[-0.015],[1],[0],[0],[8.837863799999468],3,001,2024-10-10_15h56.36.079,Visual Search Experiment,2024.1.5,None,2024-10-10 15h56.50.359916 +0530,
197,0,197,0,797.0074537999462,,796.9806512000505,5,797.0074537999462,797.0074537999462,0.01475819991901517,798.3461320999777,[0.185],[0.3283333333333333],[1],[0],[0],[1.350931099965237],3,001,2024-10-10_15h56.36.079,Visual Search Experiment,2024.1.5,None,2024-10-10 15h56.50.359916 +0530,
198,0,198,0,798.3743427000009,,798.3484360999428,5,798.3743427000009,798.3743427000009,0.014995799981988966,799.9298810999608,[0.205],[-0.425],[1],[0],[0],[1.566601499915123],3,001,2024-10-10_15h56.36.079,Visual Search Experiment,2024.1.5,None,2024-10-10 15h56.50.359916 +0530,
199,0,199,0,799.9913908999879,,799.9338701999513,10,799.9913908999879,799.9913908999879,0.03371820005122572,801.6800174999516,[0.10333333333333333],[-0.4166666666666667],[0],[0],[1],[1.7130491000134498],3,001,2024-10-10_15h56.36.079,Visual Search Experiment,2024.1.5,None,2024-10-10 15h56.50.359916 +0530,
