trials.thisRepN,trials.thisTrialN,trials.thisN,trials.thisIndex,thisRow.t,notes,trial.started,num_distr,Fixation.started,target.started,mouse.started,trial.stopped,mouse.x,mouse.y,mouse.leftButton,mouse.midButton,mouse.rightButton,mouse.time,participant,session,date,expName,psychopyVersion,frameRate,expStart,
0,0,0,0,0.07037520001176745,,0.009941100026480854,5,0.07037520001176745,0.07037520001176745,0.03910109994467348,2.9607680999906734,[-0.325],[-0.18166666666666667],[1],[0],[0],[2.9209751000162214],4,001,2024-10-10_16h13.23.497,Visual Search Experiment,2024.1.5,None,2024-10-10 16h13.35.638617 +0530,
1,0,1,0,2.9894892999436706,,2.9645825000479817,5,2.9894892999436706,2.9894892999436706,0.014142300002276897,4.708810799987987,[0.051666666666666666],[-0.0033333333333333335],[1],[0],[0],[1.730273099965416],4,001,2024-10-10_16h13.23.497,Visual Search Experiment,2024.1.5,None,2024-10-10 16h13.35.638617 +0530,
2,0,2,0,4.7558881000149995,,4.711078000022098,10,4.7558881000149995,4.7558881000149995,0.03132519999053329,6.92841509997379,[0.48833333333333334],[0.19],[1],[0],[0],[2.1862925000023097],4,001,2024-10-10_16h13.23.497,Visual Search Experiment,2024.1.5,None,2024-10-10 16h13.35.638617 +0530,
3,0,3,0,6.97336089995224,,6.9308248000452295,10,6.97336089995224,6.97336089995224,0.028239900013431907,12.663703999947757,[0.07833333333333334],[-0.38166666666666665],[1],[0],[0],[5.704866999993101],4,001,2024-10-10_16h13.23.497,Visual Search Experiment,2024.1.5,None,2024-10-10 16h13.35.638617 +0530,
4,0,4,0,12.708700499963015,,12.666562999947928,5,12.708700499963015,12.708700499963015,0.02215620002243668,16.014950799988583,[-0.135],[-0.31166666666666665],[1],[0],[0],[3.3267991999164224],4,001,2024-10-10_16h13.23.497,Visual Search Experiment,2024.1.5,None,2024-10-10 16h13.35.638617 +0530,
5,0,5,0,16.060223400010727,,16.01726009999402,5,16.060223400010727,16.060223400010727,0.019025800051167607,18.216409799992107,[-0.12166666666666667],[0.485],[1],[0],[0],[2.1804272999288514],4,001,2024-10-10_16h13.23.497,Visual Search Experiment,2024.1.5,None,2024-10-10 16h13.35.638617 +0530,
6,0,6,0,18.244572299998254,,18.21871090005152,5,18.244572299998254,18.244572299998254,0.016197099932469428,22.282757499953732,[0.17333333333333334],[-0.3416666666666667],[1],[0],[0],[4.048113199998625],4,001,2024-10-10_16h13.23.497,Visual Search Experiment,2024.1.5,None,2024-10-10 16h13.35.638617 +0530,
7,0,7,0,22.345784200006165,,22.285090500023216,10,22.345784200006165,22.345784200006165,0.032318799989297986,24.084770899964496,[-0.3466666666666667],[0.44166666666666665],[1],[0],[0],[1.7676290000090376],4,001,2024-10-10_16h13.23.497,Visual Search Experiment,2024.1.5,None,2024-10-10 16h13.35.638617 +0530,
8,0,8,0,24.146847099997103,,24.08714560000226,10,24.146847099997103,24.146847099997103,0.03393749997485429,29.55240479996428,[0.27166666666666667],[0.49833333333333335],[1],[0],[0],[5.431640600087121],4,001,2024-10-10_16h13.23.497,Visual Search Experiment,2024.1.5,None,2024-10-10 16h13.35.638617 +0530,
9,0,9,0,29.598605999955907,,29.554754700046033,10,29.598605999955907,29.598605999955907,0.031306999968364835,31.170705499942414,[-0.48],[0.25333333333333335],[1],[0],[0],[1.584898499888368],4,001,2024-10-10_16h13.23.497,Visual Search Experiment,2024.1.5,None,2024-10-10 16h13.35.638617 +0530,
10,0,10,0,31.199412600020878,,31.173108199960552,5,31.199412600020878,31.199412600020878,0.016873499960638583,33.50442440004554,[0.34],[-0.16],[1],[0],[0],[2.314740699948743],4,001,2024-10-10_16h13.23.497,Visual Search Experiment,2024.1.5,None,2024-10-10 16h13.35.638617 +0530,
11,0,11,0,33.566959899966605,,33.50667999999132,10,33.566959899966605,33.566959899966605,0.03607570007443428,36.72271360002924,[0.445],[-0.4],[1],[0],[0],[3.1801681000506505],4,001,2024-10-10_16h13.23.497,Visual Search Experiment,2024.1.5,None,2024-10-10 16h13.35.638617 +0530,
12,0,12,0,36.78508669999428,,36.72549380001146,10,36.78508669999428,36.78508669999428,0.033194299903698266,38.70559330005199,[-0.495],[-0.05],[1],[0],[0],[1.9476521000033244],4,001,2024-10-10_16h13.23.497,Visual Search Experiment,2024.1.5,None,2024-10-10 16h13.35.638617 +0530,
13,0,13,0,38.75232239998877,,38.70838520000689,10,38.75232239998877,38.75232239998877,0.031043199938721955,40.7406010000268,[-0.13666666666666666],[-0.12666666666666668],[1],[0],[0],[2.001687200041488],4,001,2024-10-10_16h13.23.497,Visual Search Experiment,2024.1.5,None,2024-10-10 16h13.35.638617 +0530,
14,0,14,0,40.76965290005319,,40.74294160003774,5,40.76965290005319,40.76965290005319,0.015333999996073544,42.64169179997407,[-0.12666666666666668],[-0.205],[1],[0],[0],[1.8836976999882609],4,001,2024-10-10_16h13.23.497,Visual Search Experiment,2024.1.5,None,2024-10-10 16h13.35.638617 +0530,
15,0,15,0,42.686943499953486,,42.64399350003805,5,42.686943499953486,42.686943499953486,0.019331300049088895,46.5433628000319,[0.27],[0.04666666666666667],[1],[0],[0],[3.88031289994251],4,001,2024-10-10_16h13.23.497,Visual Search Experiment,2024.1.5,None,2024-10-10 16h13.35.638617 +0530,
16,0,16,0,46.605231900000945,,46.545692799962126,10,46.605231900000945,46.605231900000945,0.03620709991082549,50.361691499943845,[-0.3233333333333333],[-0.23166666666666666],[1],[0],[0],[3.7799971000058576],4,001,2024-10-10_16h13.23.497,Visual Search Experiment,2024.1.5,None,2024-10-10 16h13.35.638617 +0530,
17,0,17,0,50.40740879997611,,50.36433909996413,5,50.40740879997611,50.40740879997611,0.021698199911043048,53.512976599973626,[0.22666666666666666],[-0.07166666666666667],[1],[0],[0],[3.127266600029543],4,001,2024-10-10_16h13.23.497,Visual Search Experiment,2024.1.5,None,2024-10-10 16h13.35.638617 +0530,
18,0,18,0,53.55796879995614,,53.51528349996079,5,53.55796879995614,53.55796879995614,0.017370900022797287,57.34585180005524,[-0.31],[-0.10166666666666667],[1],[0],[0],[3.8134673999156803],4,001,2024-10-10_16h13.23.497,Visual Search Experiment,2024.1.5,None,2024-10-10 16h13.35.638617 +0530,
19,0,19,0,57.40962920000311,,57.34815149998758,10,57.40962920000311,57.40962920000311,0.03170669998507947,62.2825840000296,[0.47833333333333333],[0.15],[1],[0],[0],[4.902539099915884],4,001,2024-10-10_16h13.23.497,Visual Search Experiment,2024.1.5,None,2024-10-10 16h13.35.638617 +0530,
20,0,20,0,62.344930100021884,,62.28538050001953,10,62.344930100021884,62.344930100021884,0.03030340000987053,68.2192624999443,[-0.175],[-0.013333333333333334],[1],[0],[0],[5.903849999886006],4,001,2024-10-10_16h13.23.497,Visual Search Experiment,2024.1.5,None,2024-10-10 16h13.35.638617 +0530,
21,0,21,0,68.24726970004849,,68.22161979996599,5,68.24726970004849,68.24726970004849,0.014510000008158386,69.70180649997201,[-0.45],[0.2683333333333333],[1],[0],[0],[1.4659126999322325],4,001,2024-10-10_16h13.23.497,Visual Search Experiment,2024.1.5,None,2024-10-10 16h13.35.638617 +0530,
22,0,22,0,69.73153260000981,,69.70416660001501,5,69.73153260000981,69.73153260000981,0.015360999968834221,72.88631920004264,[-0.22166666666666668],[-0.4266666666666667],[1],[0],[0],[3.1670867999782786],4,001,2024-10-10_16h13.23.497,Visual Search Experiment,2024.1.5,None,2024-10-10 16h13.35.638617 +0530,
23,0,23,0,72.91543469997123,,72.88862360001076,5,72.91543469997123,72.91543469997123,0.01460699993185699,74.65355709998403,[0.21166666666666667],[-0.38166666666666665],[1],[0],[0],[1.7505755999591202],4,001,2024-10-10_16h13.23.497,Visual Search Experiment,2024.1.5,None,2024-10-10 16h13.35.638617 +0530,
24,0,24,0,74.69964240002446,,74.65583740000147,5,74.69964240002446,74.69964240002446,0.02058539993595332,76.08928790001664,[-0.3566666666666667],[0.3466666666666667],[1],[0],[0],[1.4129590999800712],4,001,2024-10-10_16h13.23.497,Visual Search Experiment,2024.1.5,None,2024-10-10 16h13.35.638617 +0530,
25,0,25,0,76.15047200000845,,76.09154649998527,10,76.15047200000845,76.15047200000845,0.0338698000414297,77.27397890004795,[-0.35833333333333334],[0.44333333333333336],[1],[0],[0],[1.1487501000519842],4,001,2024-10-10_16h13.23.497,Visual Search Experiment,2024.1.5,None,2024-10-10 16h13.35.638617 +0530,
26,0,26,0,77.3175004000077,,77.27820019994397,5,77.3175004000077,77.3175004000077,0.023475299938581884,79.25719959998969,[0.425],[-0.29833333333333334],[1],[0],[0],[1.9563051000004634],4,001,2024-10-10_16h13.23.497,Visual Search Experiment,2024.1.5,None,2024-10-10 16h13.35.638617 +0530,
27,0,27,0,79.3016811000416,,79.25953080004547,5,79.3016811000416,79.3016811000416,0.016669900040142238,80.78929920005612,[-0.14333333333333334],[0.295],[1],[0],[0],[1.5134291000431404],4,001,2024-10-10_16h13.23.497,Visual Search Experiment,2024.1.5,None,2024-10-10 16h13.35.638617 +0530,
28,0,28,0,80.85202470002696,,80.79166740004439,10,80.85202470002696,80.85202470002696,0.028699100017547607,86.22581800003536,[0.4266666666666667],[0.4633333333333333],[1],[0],[0],[5.405707599944435],4,001,2024-10-10_16h13.23.497,Visual Search Experiment,2024.1.5,None,2024-10-10 16h13.35.638617 +0530,
29,0,29,0,86.2544985000277,,86.22856720001437,5,86.2544985000277,86.2544985000277,0.016224700026214123,87.96203619998414,[0.32],[0.05],[1],[0],[0],[1.7172719999216497],4,001,2024-10-10_16h13.23.497,Visual Search Experiment,2024.1.5,None,2024-10-10 16h13.35.638617 +0530,
30,0,30,0,88.00526130001526,,87.96469799999613,5,88.00526130001526,88.00526130001526,0.01688290003221482,89.3931080000475,[0.49666666666666665],[0.08333333333333333],[1],[0],[0],[1.4117880000267178],4,001,2024-10-10_16h13.23.497,Visual Search Experiment,2024.1.5,None,2024-10-10 16h13.35.638617 +0530,
31,0,31,0,89.43873449997045,,89.3953822000185,5,89.43873449997045,89.43873449997045,0.016744800028391182,115.98715069994796,[-0.006666666666666667],[0.48],[1],[0],[0],[26.57528300001286],4,001,2024-10-10_16h13.23.497,Visual Search Experiment,2024.1.5,None,2024-10-10 16h13.35.638617 +0530,
32,0,32,0,116.04951309994794,,115.98945780005306,10,116.04951309994794,116.04951309994794,0.03364869998767972,117.82134350005072,[-0.36833333333333335],[-0.245],[1],[0],[0],[1.798485199920833],4,001,2024-10-10_16h13.23.497,Visual Search Experiment,2024.1.5,None,2024-10-10 16h13.35.638617 +0530,
33,0,33,0,117.86652070004493,,117.82371360005345,5,117.86652070004493,117.86652070004493,0.018223299994133413,119.8054528000066,[0.06666666666666667],[0.42333333333333334],[1],[0],[0],[1.9636161999078467],4,001,2024-10-10_16h13.23.497,Visual Search Experiment,2024.1.5,None,2024-10-10 16h13.35.638617 +0530,
34,0,34,0,119.86710140004288,,119.80776400002651,10,119.86710140004288,119.86710140004288,0.03382790007162839,122.18779610004276,[0.12],[-0.24166666666666667],[1],[0],[0],[2.346480599953793],4,001,2024-10-10_16h13.23.497,Visual Search Experiment,2024.1.5,None,2024-10-10 16h13.35.638617 +0530,
35,0,35,0,122.23498940002173,,122.19012469996233,5,122.23498940002173,122.23498940002173,0.015437899972312152,127.39107370004058,[0.13666666666666666],[0.4683333333333333],[1],[0],[0],[5.1857493000570685],4,001,2024-10-10_16h13.23.497,Visual Search Experiment,2024.1.5,None,2024-10-10 16h13.35.638617 +0530,
36,0,36,0,127.42024630005471,,127.39340830000583,5,127.42024630005471,127.42024630005471,0.01606819999869913,130.34227539994754,[-0.105],[0.49666666666666665],[1],[0],[0],[2.933087599929422],4,001,2024-10-10_16h13.23.497,Visual Search Experiment,2024.1.5,None,2024-10-10 16h13.35.638617 +0530,
37,0,37,0,130.37163690000307,,130.34455829998478,5,130.37163690000307,130.37163690000307,0.014777799951843917,132.57667450001463,[0.25666666666666665],[-0.24166666666666667],[1],[0],[0],[2.2175851999782026],4,001,2024-10-10_16h13.23.497,Visual Search Experiment,2024.1.5,None,2024-10-10 16h13.35.638617 +0530,
38,0,38,0,132.62274559994694,,132.57897120004054,5,132.62274559994694,132.62274559994694,0.019588900031521916,135.576571600046,[-0.13166666666666665],[0.03833333333333333],[1],[0],[0],[2.978255999973044],4,001,2024-10-10_16h13.23.497,Visual Search Experiment,2024.1.5,None,2024-10-10 16h13.35.638617 +0530,
39,0,39,0,135.6236122000264,,135.57888060004916,10,135.6236122000264,135.6236122000264,0.03232280001975596,146.86827380000614,[-0.13],[0.47],[1],[0],[0],[11.257285300060175],4,001,2024-10-10_16h13.23.497,Visual Search Experiment,2024.1.5,None,2024-10-10 16h13.35.638617 +0530,
40,0,40,0,146.92826039995998,,146.8709067000309,10,146.92826039995998,146.92826039995998,0.03051950002554804,149.30049920000602,[0.4683333333333333],[0.465],[1],[0],[0],[2.3992389000486583],4,001,2024-10-10_16h13.23.497,Visual Search Experiment,2024.1.5,None,2024-10-10 16h13.35.638617 +0530,
41,0,41,0,149.34575119998772,,149.3027702999534,5,149.34575119998772,149.34575119998772,0.016710500000044703,174.40985880000517,[-0.475],[0.365],[1],[0],[0],[25.090610299957916],4,001,2024-10-10_16h13.23.497,Visual Search Experiment,2024.1.5,None,2024-10-10 16h13.35.638617 +0530,
42,0,42,0,174.45552580000367,,174.41215250000823,5,174.45552580000367,174.45552580000367,0.0190119999460876,176.01182500005234,[0.145],[-0.22833333333333333],[1],[0],[0],[1.5809590000426397],4,001,2024-10-10_16h13.23.497,Visual Search Experiment,2024.1.5,None,2024-10-10 16h13.35.638617 +0530,
43,0,43,0,176.05617290001828,,176.01412319997326,5,176.05617290001828,176.05617290001828,0.018571299966424704,177.71134699997492,[-0.4216666666666667],[-0.155],[1],[0],[0],[1.6789086000062525],4,001,2024-10-10_16h13.23.497,Visual Search Experiment,2024.1.5,None,2024-10-10 16h13.35.638617 +0530,
44,0,44,0,177.77327000000514,,177.7136327000335,10,177.77327000000514,177.77327000000514,0.03026050003245473,181.3797185999574,[-0.10666666666666667],[0.03333333333333333],[1],[0],[0],[3.635981500032358],4,001,2024-10-10_16h13.23.497,Visual Search Experiment,2024.1.5,None,2024-10-10 16h13.35.638617 +0530,
45,0,45,0,181.42495789995883,,181.3839362000581,5,181.42495789995883,181.42495789995883,0.019513600040227175,184.1138845999958,[-0.21],[-0.055],[1],[0],[0],[2.7111574999289587],4,001,2024-10-10_16h13.23.497,Visual Search Experiment,2024.1.5,None,2024-10-10 16h13.35.638617 +0530,
46,0,46,0,184.17616869998164,,184.11750809999648,10,184.17616869998164,184.17616869998164,0.037581800017505884,185.7646754999878,[0.4583333333333333],[0.405],[1],[0],[0],[1.6103115000296384],4,001,2024-10-10_16h13.23.497,Visual Search Experiment,2024.1.5,None,2024-10-10 16h13.35.638617 +0530,
47,0,47,0,185.82688710000366,,185.76699280005414,10,185.82688710000366,185.82688710000366,0.0271354999858886,187.38021420000587,[0.11666666666666667],[0.06],[1],[0],[0],[1.5863805999979377],4,001,2024-10-10_16h13.23.497,Visual Search Experiment,2024.1.5,None,2024-10-10 16h13.35.638617 +0530,
48,0,48,0,187.42720519995783,,187.3825835000025,5,187.42720519995783,187.42720519995783,0.019012699951417744,188.56566049996763,[-0.075],[0.051666666666666666],[1],[0],[0],[1.1639336000662297],4,001,2024-10-10_16h13.23.497,Visual Search Experiment,2024.1.5,None,2024-10-10 16h13.35.638617 +0530,
49,0,49,0,188.61106739996467,,188.5681485000532,5,188.61106739996467,188.61106739996467,0.017550099990330637,189.98236230004113,[0.37833333333333335],[0.013333333333333334],[1],[0],[0],[1.3969448000425473],4,001,2024-10-10_16h13.23.497,Visual Search Experiment,2024.1.5,None,2024-10-10 16h13.35.638617 +0530,
50,0,50,0,190.0450732000172,,189.98468899994623,10,190.0450732000172,190.0450732000172,0.03138589998707175,191.53296009998303,[0.03666666666666667],[0.24166666666666667],[1],[0],[0],[1.5171387000009418],4,001,2024-10-10_16h13.23.497,Visual Search Experiment,2024.1.5,None,2024-10-10 16h13.35.638617 +0530,
51,0,51,0,191.57903010002337,,191.5357551999623,5,191.57903010002337,191.57903010002337,0.0190117999445647,193.3172535999911,[-0.3333333333333333],[-0.04833333333333333],[1],[0],[0],[1.7631360000232235],4,001,2024-10-10_16h13.23.497,Visual Search Experiment,2024.1.5,None,2024-10-10 16h13.35.638617 +0530,
52,0,52,0,193.37970189994667,,193.3195313999895,10,193.37970189994667,193.37970189994667,0.031082900008186698,208.57593070005532,[-0.021666666666666667],[0.02],[1],[0],[0],[15.225497900042683],4,001,2024-10-10_16h13.23.497,Visual Search Experiment,2024.1.5,None,2024-10-10 16h13.35.638617 +0530,
53,0,53,0,208.6189823000459,,208.5782002999913,10,208.6189823000459,208.6189823000459,0.029821099946275353,210.29227710003033,[0.385],[0.44166666666666665],[1],[0],[0],[1.683983700000681],4,001,2024-10-10_16h13.23.497,Visual Search Experiment,2024.1.5,None,2024-10-10 16h13.35.638617 +0530,
54,0,54,0,210.31939670001157,,210.29449180001393,5,210.31939670001157,210.31939670001157,0.013592800009064376,211.6065523000434,[0.24333333333333335],[0.09166666666666666],[1],[0],[0],[1.2986927999882028],4,001,2024-10-10_16h13.23.497,Visual Search Experiment,2024.1.5,None,2024-10-10 16h13.35.638617 +0530,
55,0,55,0,211.63627250003628,,211.6087723999517,5,211.63627250003628,211.63627250003628,0.01704750000499189,213.27865840005688,[-0.3233333333333333],[0.4766666666666667],[1],[0],[0],[1.6526388000929728],4,001,2024-10-10_16h13.23.497,Visual Search Experiment,2024.1.5,None,2024-10-10 16h13.35.638617 +0530,
56,0,56,0,213.3379353999626,,213.28103980002925,10,213.3379353999626,213.3379353999626,0.028458999935537577,215.41145849996246,[0.17833333333333334],[-0.43166666666666664],[1],[0],[0],[2.101947300019674],4,001,2024-10-10_16h13.23.497,Visual Search Experiment,2024.1.5,None,2024-10-10 16h13.35.638617 +0530,
57,0,57,0,215.4550933999708,,215.4137240999844,10,215.4550933999708,215.4550933999708,0.027390100061893463,218.12655329995323,[-0.5],[0.18666666666666668],[1],[0],[0],[2.685651100007817],4,001,2024-10-10_16h13.23.497,Visual Search Experiment,2024.1.5,None,2024-10-10 16h13.35.638617 +0530,
58,0,58,0,218.1724053999642,,218.12878549995366,10,218.1724053999642,218.1724053999642,0.030139300040900707,220.727324699983,[0.44],[0.43333333333333335],[1],[0],[0],[2.5685140000423416],4,001,2024-10-10_16h13.23.497,Visual Search Experiment,2024.1.5,None,2024-10-10 16h13.35.638617 +0530,
59,0,59,0,220.77358929999173,,220.73015900002792,10,220.77358929999173,220.77358929999173,0.02708799997344613,222.16083870001603,[-0.023333333333333334],[0.38],[1],[0],[0],[1.4037602000171319],4,001,2024-10-10_16h13.23.497,Visual Search Experiment,2024.1.5,None,2024-10-10 16h13.35.638617 +0530,
60,0,60,0,222.20761319994926,,222.16334329999518,10,222.20761319994926,222.20761319994926,0.026512200012803078,224.18113859998994,[0.42],[0.20833333333333334],[1],[0],[0],[1.9913024000125006],4,001,2024-10-10_16h13.23.497,Visual Search Experiment,2024.1.5,None,2024-10-10 16h13.35.638617 +0530,
61,0,61,0,224.208202800015,,224.18354480003472,5,224.208202800015,224.208202800015,0.014536999980919063,226.0471552000381,[0.13666666666666666],[-0.44],[1],[0],[0],[1.849303999915719],4,001,2024-10-10_16h13.23.497,Visual Search Experiment,2024.1.5,None,2024-10-10 16h13.35.638617 +0530,
62,0,62,0,226.09234299999662,,226.049551300006,10,226.09234299999662,226.09234299999662,0.02760560007300228,227.6466691000387,[0.45666666666666667],[0.01],[1],[0],[0],[1.5696409000083804],4,001,2024-10-10_16h13.23.497,Visual Search Experiment,2024.1.5,None,2024-10-10 16h13.35.638617 +0530,
63,0,63,0,227.67631000000983,,227.64968989999034,5,227.67631000000983,227.67631000000983,0.015537200029939413,228.21522450004704,[0.45666666666666667],[0.01],[1],[0],[0],[0.5497512000147253],4,001,2024-10-10_16h13.23.497,Visual Search Experiment,2024.1.5,None,2024-10-10 16h13.35.638617 +0530,
64,0,64,0,228.26016189996153,,228.2178238000488,10,228.26016189996153,228.26016189996153,0.027014399995096028,230.08051320002414,[0.105],[-0.29],[1],[0],[0],[1.8359055999899283],4,001,2024-10-10_16h13.23.497,Visual Search Experiment,2024.1.5,None,2024-10-10 16h13.35.638617 +0530,
65,0,65,0,230.1103350999765,,230.08272730000317,5,230.1103350999765,230.1103350999765,0.015408299979753792,231.93485259998124,[-0.25],[-0.21666666666666667],[1],[0],[0],[1.8368707000045106],4,001,2024-10-10_16h13.23.497,Visual Search Experiment,2024.1.5,None,2024-10-10 16h13.35.638617 +0530,
66,0,66,0,231.9613607999636,,231.93739350000396,5,231.9613607999636,231.9613607999636,0.014194500050507486,233.58417929999996,[0.21333333333333335],[0.13833333333333334],[1],[0],[0],[1.6328281000023708],4,001,2024-10-10_16h13.23.497,Visual Search Experiment,2024.1.5,None,2024-10-10 16h13.35.638617 +0530,
67,0,67,0,233.62881020002533,,233.58707290003076,5,233.62881020002533,233.62881020002533,0.01665010000579059,234.9684791000327,[0.23],[0.4166666666666667],[1],[0],[0],[1.3650194000219926],4,001,2024-10-10_16h13.23.497,Visual Search Experiment,2024.1.5,None,2024-10-10 16h13.35.638617 +0530,
68,0,68,0,234.99594669998623,,234.97068200004287,5,234.99594669998623,234.99594669998623,0.015604599961079657,236.50290179997683,[0.26],[0.03833333333333333],[1],[0],[0],[1.5164607000770047],4,001,2024-10-10_16h13.23.497,Visual Search Experiment,2024.1.5,None,2024-10-10 16h13.35.638617 +0530,
69,0,69,0,236.5464726999635,,236.50550480000675,5,236.5464726999635,236.5464726999635,0.016682400018908083,238.01916070003062,[-0.23833333333333334],[0.19666666666666666],[1],[0],[0],[1.4971891000168398],4,001,2024-10-10_16h13.23.497,Visual Search Experiment,2024.1.5,None,2024-10-10 16h13.35.638617 +0530,
70,0,70,0,238.0470592000056,,238.02139979996718,5,238.0470592000056,238.0470592000056,0.013021299964748323,239.9844662999967,[-0.19],[-0.09833333333333333],[1],[0],[0],[1.9502380000194535],4,001,2024-10-10_16h13.23.497,Visual Search Experiment,2024.1.5,None,2024-10-10 16h13.35.638617 +0530,
71,0,71,0,240.03125720005482,,239.98667699994985,10,240.03125720005482,240.03125720005482,0.02473559998907149,242.287085799966,[0.035],[-0.17333333333333334],[1],[0],[0],[2.2757807000307366],4,001,2024-10-10_16h13.23.497,Visual Search Experiment,2024.1.5,None,2024-10-10 16h13.35.638617 +0530,
72,0,72,0,242.31551750004292,,242.28932440001518,5,242.31551750004292,242.31551750004292,0.016481700004078448,245.155964900041,[-0.48333333333333334],[-0.46],[1],[0],[0],[2.8502770999912173],4,001,2024-10-10_16h13.23.497,Visual Search Experiment,2024.1.5,None,2024-10-10 16h13.35.638617 +0530,
73,0,73,0,245.19980409997515,,245.15851089998614,10,245.19980409997515,245.19980409997515,0.028643000056035817,248.53994349995628,[0.185],[-0.295],[1],[0],[0],[3.3531906000571325],4,001,2024-10-10_16h13.23.497,Visual Search Experiment,2024.1.5,None,2024-10-10 16h13.35.638617 +0530,
74,0,74,0,248.58447160001379,,248.54219649999868,10,248.58447160001379,248.58447160001379,0.025717000011354685,251.05851210001856,[0.07666666666666666],[-0.06833333333333333],[1],[0],[0],[2.4905575000448152],4,001,2024-10-10_16h13.23.497,Visual Search Experiment,2024.1.5,None,2024-10-10 16h13.35.638617 +0530,
75,0,75,0,251.10222530004103,,251.0620436000172,10,251.10222530004103,251.10222530004103,0.027342800050973892,255.40946240001358,[0.26],[0.335],[1],[0],[0],[4.32034500001464],4,001,2024-10-10_16h13.23.497,Visual Search Experiment,2024.1.5,None,2024-10-10 16h13.35.638617 +0530,
76,0,76,0,255.45417599997018,,255.4127760999836,5,255.45417599997018,255.45417599997018,0.015428299899213016,257.64216559997294,[0.30333333333333334],[-0.20666666666666667],[1],[0],[0],[2.2143678000429645],4,001,2024-10-10_16h13.23.497,Visual Search Experiment,2024.1.5,None,2024-10-10 16h13.35.638617 +0530,
77,0,77,0,257.68801519996487,,257.64437250001356,10,257.68801519996487,257.68801519996487,0.02835329994559288,260.0278570000082,[-0.16166666666666665],[-0.17],[1],[0],[0],[2.35529200010933],4,001,2024-10-10_16h13.23.497,Visual Search Experiment,2024.1.5,None,2024-10-10 16h13.35.638617 +0530,
78,0,78,0,260.05564909998793,,260.03013400000054,5,260.05564909998793,260.05564909998793,0.016266199992969632,261.4935433999635,[-0.4033333333333333],[0.3],[1],[0],[0],[1.447243900038302],4,001,2024-10-10_16h13.23.497,Visual Search Experiment,2024.1.5,None,2024-10-10 16h13.35.638617 +0530,
79,0,79,0,261.5233077999437,,261.495832500048,5,261.5233077999437,261.5233077999437,0.01343069993890822,263.6612014999846,[-0.02],[0.3383333333333333],[1],[0],[0],[2.1521446000551805],4,001,2024-10-10_16h13.23.497,Visual Search Experiment,2024.1.5,None,2024-10-10 16h13.35.638617 +0530,
80,0,80,0,263.70695999998134,,263.6634032999864,10,263.70695999998134,263.70695999998134,0.028838400030508637,265.8618989000097,[-0.3883333333333333],[-0.38166666666666665],[1],[0],[0],[2.169783999910578],4,001,2024-10-10_16h13.23.497,Visual Search Experiment,2024.1.5,None,2024-10-10 16h13.35.638617 +0530,
81,0,81,0,265.89101300004404,,265.8641501000384,5,265.89101300004404,265.89101300004404,0.013684600009582937,268.9979221000103,[0.0033333333333333335],[-0.26166666666666666],[1],[0],[0],[3.1201627999544144],4,001,2024-10-10_16h13.23.497,Visual Search Experiment,2024.1.5,None,2024-10-10 16h13.35.638617 +0530,
82,0,82,0,269.0428936999524,,269.0007742999587,5,269.0428936999524,269.0428936999524,0.01733189995866269,271.21344229998067,[0.41333333333333333],[0.085],[1],[0],[0],[2.195553900091909],4,001,2024-10-10_16h13.23.497,Visual Search Experiment,2024.1.5,None,2024-10-10 16h13.35.638617 +0530,
83,0,83,0,271.3101758999983,,271.21755329996813,10,271.3101758999983,271.3101758999983,0.054083900060504675,275.1183328999905,[-0.07333333333333333],[-0.20166666666666666],[1],[0],[0],[3.84747919999063],4,001,2024-10-10_16h13.23.497,Visual Search Experiment,2024.1.5,None,2024-10-10 16h13.35.638617 +0530,
84,0,84,0,275.14503490005154,,275.1206291000126,5,275.14503490005154,275.14503490005154,0.014898700057528913,277.3674196000211,[-0.405],[0.44666666666666666],[1],[0],[0],[2.2319432999938726],4,001,2024-10-10_16h13.23.497,Visual Search Experiment,2024.1.5,None,2024-10-10 16h13.35.638617 +0530,
85,0,85,0,277.4128198999679,,277.3701511999825,10,277.4128198999679,277.4128198999679,0.02968809998128563,279.33371929998975,[0.06166666666666667],[-0.25166666666666665],[1],[0],[0],[1.9343731999397278],4,001,2024-10-10_16h13.23.497,Visual Search Experiment,2024.1.5,None,2024-10-10 16h13.35.638617 +0530,
86,0,86,0,279.3630663000513,,279.3364131000126,5,279.3630663000513,279.3630663000513,0.0142900999635458,280.7009469999466,[-0.4083333333333333],[-0.2833333333333333],[1],[0],[0],[1.3504861999535933],4,001,2024-10-10_16h13.23.497,Visual Search Experiment,2024.1.5,None,2024-10-10 16h13.35.638617 +0530,
87,0,87,0,280.74687439994887,,280.70363949995954,10,280.74687439994887,280.74687439994887,0.028754199971444905,283.1044475999661,[-0.21333333333333335],[-0.3333333333333333],[1],[0],[0],[2.372318400070071],4,001,2024-10-10_16h13.23.497,Visual Search Experiment,2024.1.5,None,2024-10-10 16h13.35.638617 +0530,
88,0,88,0,283.1648878999986,,283.10837849997915,10,283.1648878999986,283.1648878999986,0.03215990005992353,284.58898180001415,[-0.21833333333333332],[0.47833333333333333],[1],[0],[0],[1.4487508999882266],4,001,2024-10-10_16h13.23.497,Visual Search Experiment,2024.1.5,None,2024-10-10 16h13.35.638617 +0530,
89,0,89,0,284.6491864999989,,284.59128209995106,10,284.6491864999989,284.6491864999989,0.02713259996380657,286.4037840999663,[0.17166666666666666],[0.04],[1],[0],[0],[1.7855066999327391],4,001,2024-10-10_16h13.23.497,Visual Search Experiment,2024.1.5,None,2024-10-10 16h13.35.638617 +0530,
90,0,90,0,286.432243200019,,286.40618129994255,5,286.432243200019,286.432243200019,0.017203699913807213,288.9732638000278,[0.28833333333333333],[-0.195],[1],[0],[0],[2.549977599992417],4,001,2024-10-10_16h13.23.497,Visual Search Experiment,2024.1.5,None,2024-10-10 16h13.35.638617 +0530,
91,0,91,0,289.0340715999482,,288.97547940001823,10,289.0340715999482,289.0340715999482,0.028548399917781353,290.6897407999495,[0.37],[0.35333333333333333],[1],[0],[0],[1.685708999983035],4,001,2024-10-10_16h13.23.497,Visual Search Experiment,2024.1.5,None,2024-10-10 16h13.35.638617 +0530,
92,0,92,0,290.71764930000063,,290.6919748999644,5,290.71764930000063,290.71764930000063,0.013592000002972782,292.12391449999996,[-0.37],[0.185],[1],[0],[0],[1.4184733999427408],4,001,2024-10-10_16h13.23.497,Visual Search Experiment,2024.1.5,None,2024-10-10 16h13.35.638617 +0530,
93,0,93,0,292.16819959995337,,292.12612969998736,10,292.16819959995337,292.16819959995337,0.025688400026410818,294.5583749000216,[0.4583333333333333],[-0.36666666666666664],[1],[0],[0],[2.4064783999929205],4,001,2024-10-10_16h13.23.497,Visual Search Experiment,2024.1.5,None,2024-10-10 16h13.35.638617 +0530,
94,0,94,0,294.6022823000094,,294.56066960003227,10,294.6022823000094,294.6022823000094,0.028926099999807775,297.1941769999685,[0.18666666666666668],[-0.22666666666666666],[1],[0],[0],[2.6047208999516442],4,001,2024-10-10_16h13.23.497,Visual Search Experiment,2024.1.5,None,2024-10-10 16h13.35.638617 +0530,
95,0,95,0,297.23763720004354,,297.19643240002915,5,297.23763720004354,297.23763720004354,0.015005799941718578,298.85965380002744,[0.04833333333333333],[-0.18166666666666667],[1],[0],[0],[1.6483113000867888],4,001,2024-10-10_16h13.23.497,Visual Search Experiment,2024.1.5,None,2024-10-10 16h13.35.638617 +0530,
96,0,96,0,298.9209307000274,,298.86207110004034,10,298.9209307000274,298.9209307000274,0.03162779996637255,302.4446398,[-0.26666666666666666],[0.04833333333333333],[1],[0],[0],[3.5509242999833077],4,001,2024-10-10_16h13.23.497,Visual Search Experiment,2024.1.5,None,2024-10-10 16h13.35.638617 +0530,
97,0,97,0,302.4722694000229,,302.4469692000421,5,302.4722694000229,302.4722694000229,0.013042400008998811,313.31636129994877,[-0.0016666666666666668],[-0.3466666666666667],[1],[0],[0],[10.856383700040169],4,001,2024-10-10_16h13.23.497,Visual Search Experiment,2024.1.5,None,2024-10-10 16h13.35.638617 +0530,
98,0,98,0,313.36018129996955,,313.31872039998416,5,313.36018129996955,313.36018129996955,0.01668859994970262,314.98252129997127,[0.21166666666666667],[0.255],[1],[0],[0],[1.6472491999156773],4,001,2024-10-10_16h13.23.497,Visual Search Experiment,2024.1.5,None,2024-10-10 16h13.35.638617 +0530,
99,0,99,0,315.01056830002926,,314.9847155000316,5,315.01056830002926,315.01056830002926,0.013272500014863908,318.7681655000197,[0.3466666666666667],[0.47333333333333333],[1],[0],[0],[3.7697838000021875],4,001,2024-10-10_16h13.23.497,Visual Search Experiment,2024.1.5,None,2024-10-10 16h13.35.638617 +0530,
100,0,100,0,318.79548810003325,,318.7707814000314,5,318.79548810003325,318.79548810003325,0.013180900015868247,326.1712734999601,[0.205],[0.4066666666666667],[1],[0],[0],[7.387217300012708],4,001,2024-10-10_16h13.23.497,Visual Search Experiment,2024.1.5,None,2024-10-10 16h13.35.638617 +0530,
101,0,101,0,326.19815009995364,,326.17370269994717,5,326.19815009995364,326.19815009995364,0.015824300004169345,328.2878997999942,[-0.36833333333333335],[-0.14333333333333334],[1],[0],[0],[2.098510100040585],4,001,2024-10-10_16h13.23.497,Visual Search Experiment,2024.1.5,None,2024-10-10 16h13.35.638617 +0530,
102,0,102,0,328.33262180001475,,328.29010790004395,10,328.33262180001475,328.33262180001475,0.02529249992221594,329.92144099995494,[-0.33],[0.115],[1],[0],[0],[1.6059922999702394],4,001,2024-10-10_16h13.23.497,Visual Search Experiment,2024.1.5,None,2024-10-10 16h13.35.638617 +0530,
103,0,103,0,329.96672380005475,,329.9251957000233,10,329.96672380005475,329.96672380005475,0.029475799994543195,332.02278050000314,[0.05],[-0.45666666666666667],[1],[0],[0],[2.0686149999964982],4,001,2024-10-10_16h13.23.497,Visual Search Experiment,2024.1.5,None,2024-10-10 16h13.35.638617 +0530,
104,0,104,0,332.06736029998865,,332.02504410000984,10,332.06736029998865,332.06736029998865,0.02839670004323125,333.53910920000635,[0.19333333333333333],[-0.018333333333333333],[1],[0],[0],[1.4855076000094414],4,001,2024-10-10_16h13.23.497,Visual Search Experiment,2024.1.5,None,2024-10-10 16h13.35.638617 +0530,
105,0,105,0,333.58457880001515,,333.5417693000054,10,333.58457880001515,333.58457880001515,0.027045700000599027,334.6722470000386,[0.19],[0.265],[1],[0],[0],[1.1037296999711543],4,001,2024-10-10_16h13.23.497,Visual Search Experiment,2024.1.5,None,2024-10-10 16h13.35.638617 +0530,
106,0,106,0,334.71807099995203,,334.6744867999805,10,334.71807099995203,334.71807099995203,0.02531139994971454,336.6417356999591,[0.49166666666666664],[-0.37],[1],[0],[0],[1.9421471999958158],4,001,2024-10-10_16h13.23.497,Visual Search Experiment,2024.1.5,None,2024-10-10 16h13.35.638617 +0530,
107,0,107,0,336.68548310000915,,336.6443803999573,10,336.68548310000915,336.68548310000915,0.025311899953521788,341.4759308999637,[0.24333333333333335],[0.47333333333333333],[1],[0],[0],[4.80635169998277],4,001,2024-10-10_16h13.23.497,Visual Search Experiment,2024.1.5,None,2024-10-10 16h13.35.638617 +0530,
108,0,108,0,341.53779980004765,,341.47870410000905,10,341.53779980004765,341.53779980004765,0.03252889995928854,343.46041679999325,[0.051666666666666666],[-0.3233333333333333],[1],[0],[0],[1.949295400059782],4,001,2024-10-10_16h13.23.497,Visual Search Experiment,2024.1.5,None,2024-10-10 16h13.35.638617 +0530,
109,0,109,0,343.5050043000374,,343.462664199993,10,343.5050043000374,343.5050043000374,0.025571199948899448,344.9422032999573,[-0.37333333333333335],[0.3883333333333333],[1],[0],[0],[1.4541054000146687],4,001,2024-10-10_16h13.23.497,Visual Search Experiment,2024.1.5,None,2024-10-10 16h13.35.638617 +0530,
110,0,110,0,344.97260129998904,,344.94444460002705,5,344.97260129998904,344.97260129998904,0.013769799959845841,346.4765463999938,[-0.39666666666666667],[0.43833333333333335],[1],[0],[0],[1.5184782999567688],4,001,2024-10-10_16h13.23.497,Visual Search Experiment,2024.1.5,None,2024-10-10 16h13.35.638617 +0530,
111,0,111,0,346.5059231000487,,346.4790084999986,5,346.5059231000487,346.5059231000487,0.01668440003413707,347.829297499964,[0.205],[0.23833333333333334],[1],[0],[0],[1.3337751000653952],4,001,2024-10-10_16h13.23.497,Visual Search Experiment,2024.1.5,None,2024-10-10 16h13.35.638617 +0530,
112,0,112,0,347.8732787000481,,347.83283009997103,10,347.8732787000481,347.8732787000481,0.026267599896527827,349.57737149996683,[-0.10166666666666667],[-0.15166666666666667],[1],[0],[0],[1.718476300011389],4,001,2024-10-10_16h13.23.497,Visual Search Experiment,2024.1.5,None,2024-10-10 16h13.35.638617 +0530,
113,0,113,0,349.6074777999893,,349.57987589994445,5,349.6074777999893,349.6074777999893,0.017610900104045868,350.9953932999633,[-0.185],[0.17],[1],[0],[0],[1.398307800060138],4,001,2024-10-10_16h13.23.497,Visual Search Experiment,2024.1.5,None,2024-10-10 16h13.35.638617 +0530,
114,0,114,0,351.0411048999522,,350.99779449997004,10,351.0411048999522,351.0411048999522,0.030637399991974235,352.96461699996144,[0.33666666666666667],[-0.32666666666666666],[1],[0],[0],[1.9364772000117227],4,001,2024-10-10_16h13.23.497,Visual Search Experiment,2024.1.5,None,2024-10-10 16h13.35.638617 +0530,
115,0,115,0,352.99245929997414,,352.9674156999681,5,352.99245929997414,352.99245929997414,0.013221100089140236,354.4812521999702,[0.3516666666666667],[-0.13333333333333333],[1],[0],[0],[1.500877600046806],4,001,2024-10-10_16h13.23.497,Visual Search Experiment,2024.1.5,None,2024-10-10 16h13.35.638617 +0530,
116,0,116,0,354.50954380002804,,354.4835288999602,5,354.50954380002804,354.50954380002804,0.01374329999089241,355.7491609000135,[-0.24666666666666667],[-0.29333333333333333],[1],[0],[0],[1.2520731000695378],4,001,2024-10-10_16h13.23.497,Visual Search Experiment,2024.1.5,None,2024-10-10 16h13.35.638617 +0530,
117,0,117,0,355.77677700005006,,355.75138789997436,5,355.77677700005006,355.77677700005006,0.0136824999935925,358.83188940002583,[-0.18333333333333332],[0.48],[1],[0],[0],[3.066922799916938],4,001,2024-10-10_16h13.23.497,Visual Search Experiment,2024.1.5,None,2024-10-10 16h13.35.638617 +0530,
118,0,118,0,358.86165039998014,,358.8340999999782,5,358.86165039998014,358.86165039998014,0.013850399991497397,360.50070780003443,[0.3],[0.34833333333333333],[1],[0],[0],[1.6528960999567062],4,001,2024-10-10_16h13.23.497,Visual Search Experiment,2024.1.5,None,2024-10-10 16h13.35.638617 +0530,
119,0,119,0,360.52872419997584,,360.5029277000576,5,360.52872419997584,360.52872419997584,0.013548400020226836,362.40136899997015,[0.125],[-0.09166666666666666],[1],[0],[0],[1.8847877000225708],4,001,2024-10-10_16h13.23.497,Visual Search Experiment,2024.1.5,None,2024-10-10 16h13.35.638617 +0530,
120,0,120,0,362.4460847999435,,362.4039381999755,10,362.4460847999435,362.4460847999435,0.0257418000837788,364.08584810001776,[-0.15333333333333332],[-0.41833333333333333],[1],[0],[0],[1.6559786000289023],4,001,2024-10-10_16h13.23.497,Visual Search Experiment,2024.1.5,None,2024-10-10 16h13.35.638617 +0530,
121,0,121,0,364.1303597999504,,364.08862579998095,10,364.1303597999504,364.1303597999504,0.025725499959662557,365.969926699996,[0.27],[-0.20666666666666667],[1],[0],[0],[1.855754500022158],4,001,2024-10-10_16h13.23.497,Visual Search Experiment,2024.1.5,None,2024-10-10 16h13.35.638617 +0530,
122,0,122,0,366.0142070000293,,365.9723708999809,10,366.0142070000293,366.0142070000293,0.02625400002580136,368.18751800002065,[-0.365],[-0.37666666666666665],[1],[0],[0],[2.189113400061615],4,001,2024-10-10_16h13.23.497,Visual Search Experiment,2024.1.5,None,2024-10-10 16h13.35.638617 +0530,
123,0,123,0,368.231175599969,,368.18982450000476,10,368.231175599969,368.231175599969,0.028060700045898557,370.9885847000405,[-0.45666666666666667],[-0.21833333333333332],[1],[0],[0],[2.7707806000253186],4,001,2024-10-10_16h13.23.497,Visual Search Experiment,2024.1.5,None,2024-10-10 16h13.35.638617 +0530,
124,0,124,0,371.01572240004316,,370.9913872999605,5,371.01572240004316,371.01572240004316,0.013403400080278516,373.35610059998,[0.40166666666666667],[0.17833333333333334],[1],[0],[0],[2.350969900027849],4,001,2024-10-10_16h13.23.497,Visual Search Experiment,2024.1.5,None,2024-10-10 16h13.35.638617 +0530,
125,0,125,0,373.38358979998156,,373.35976270004176,5,373.38358979998156,373.38358979998156,0.015197000000625849,374.75566729996353,[-0.021666666666666667],[0.225],[1],[0],[0],[1.3810775000602007],4,001,2024-10-10_16h13.23.497,Visual Search Experiment,2024.1.5,None,2024-10-10 16h13.35.638617 +0530,
126,0,126,0,374.8005128999939,,374.7606211999664,10,374.8005128999939,374.8005128999939,0.026690900092944503,376.7051416999893,[-0.3016666666666667],[-0.0033333333333333335],[1],[0],[0],[1.9187423000112176],4,001,2024-10-10_16h13.23.497,Visual Search Experiment,2024.1.5,None,2024-10-10 16h13.35.638617 +0530,
127,0,127,0,376.7351450000424,,376.70738559996244,5,376.7351450000424,376.7351450000424,0.013521299930289388,379.90906690002885,[0.29],[0.23666666666666666],[1],[0],[0],[3.1878140999469906],4,001,2024-10-10_16h13.23.497,Visual Search Experiment,2024.1.5,None,2024-10-10 16h13.35.638617 +0530,
128,0,128,0,379.9357985999668,,379.9113227999769,5,379.9357985999668,379.9357985999668,0.014258000068366528,382.6258038999513,[-0.011666666666666667],[-0.38],[1],[0],[0],[2.700334900058806],4,001,2024-10-10_16h13.23.497,Visual Search Experiment,2024.1.5,None,2024-10-10 16h13.35.638617 +0530,
129,0,129,0,382.67083169997204,,382.6284468000522,5,382.67083169997204,382.67083169997204,0.017111800028942525,384.4283542999765,[-0.49333333333333335],[-0.2783333333333333],[1],[0],[0],[1.782855199999176],4,001,2024-10-10_16h13.23.497,Visual Search Experiment,2024.1.5,None,2024-10-10 16h13.35.638617 +0530,
130,0,130,0,384.4714912000345,,384.4305788000347,10,384.4714912000345,384.4714912000345,0.02546889998484403,386.1920316000469,[-0.06166666666666667],[0.12333333333333334],[1],[0],[0],[1.7361364000244066],4,001,2024-10-10_16h13.23.497,Visual Search Experiment,2024.1.5,None,2024-10-10 16h13.35.638617 +0530,
131,0,131,0,386.2219431999838,,386.1942437000107,5,386.2219431999838,386.2219431999838,0.013779200031422079,388.99706129997503,[-0.4533333333333333],[-0.36666666666666664],[1],[0],[0],[2.788989400025457],4,001,2024-10-10_16h13.23.497,Visual Search Experiment,2024.1.5,None,2024-10-10 16h13.35.638617 +0530,
132,0,132,0,389.039308300009,,389.0014017999638,10,389.039308300009,389.039308300009,0.025982400053180754,391.03009649994783,[-0.21166666666666667],[-0.21333333333333335],[1],[0],[0],[2.003189399954863],4,001,2024-10-10_16h13.23.497,Visual Search Experiment,2024.1.5,None,2024-10-10 16h13.35.638617 +0530,
133,0,133,0,391.05690730002243,,391.0323540000245,5,391.05690730002243,391.05690730002243,0.013663899968378246,392.4610216000583,[-0.35333333333333333],[-0.15],[1],[0],[0],[1.4151674999156967],4,001,2024-10-10_16h13.23.497,Visual Search Experiment,2024.1.5,None,2024-10-10 16h13.35.638617 +0530,
134,0,134,0,392.4907865000423,,392.4632823000429,5,392.4907865000423,392.4907865000423,0.014831500011496246,394.41437490005046,[0.4033333333333333],[-0.09],[1],[0],[0],[1.9364529999438673],4,001,2024-10-10_16h13.23.497,Visual Search Experiment,2024.1.5,None,2024-10-10 16h13.35.638617 +0530,
135,0,135,0,394.4418189000571,,394.4172766000265,5,394.4418189000571,394.4418189000571,0.013345599989406765,395.8650089999428,[0.245],[0.13],[1],[0],[0],[1.434606600087136],4,001,2024-10-10_16h13.23.497,Visual Search Experiment,2024.1.5,None,2024-10-10 16h13.35.638617 +0530,
136,0,136,0,395.8925083000213,,395.8672272999538,5,395.8925083000213,395.8925083000213,0.014463800005614758,397.2143906999845,[-0.30666666666666664],[0.013333333333333334],[1],[0],[0],[1.3328550000442192],4,001,2024-10-10_16h13.23.497,Visual Search Experiment,2024.1.5,None,2024-10-10 16h13.35.638617 +0530,
137,0,137,0,397.2426374000497,,397.2167169000022,5,397.2426374000497,397.2426374000497,0.013705699937418103,398.83407870004885,[0.45166666666666666],[-0.17666666666666667],[1],[0],[0],[1.603744599968195],4,001,2024-10-10_16h13.23.497,Visual Search Experiment,2024.1.5,None,2024-10-10 16h13.35.638617 +0530,
138,0,138,0,398.8599330999423,,398.8363043999998,5,398.8599330999423,398.8599330999423,0.013416900066658854,400.3813919000095,[-0.3883333333333333],[-0.21],[1],[0],[0],[1.531802500016056],4,001,2024-10-10_16h13.23.497,Visual Search Experiment,2024.1.5,None,2024-10-10 16h13.35.638617 +0530,
139,0,139,0,400.4106982999947,,400.3835996000562,5,400.4106982999947,400.4106982999947,0.01441439997870475,401.9844616999617,[-0.12333333333333334],[0.4216666666666667],[1],[0],[0],[1.5861932000843808],4,001,2024-10-10_16h13.23.497,Visual Search Experiment,2024.1.5,None,2024-10-10 16h13.35.638617 +0530,
140,0,140,0,402.0113124999916,,401.9866753000533,5,402.0113124999916,402.0113124999916,0.013541300082579255,403.5169822999742,[-0.11833333333333333],[-0.4483333333333333],[1],[0],[0],[1.516863500000909],4,001,2024-10-10_16h13.23.497,Visual Search Experiment,2024.1.5,None,2024-10-10 16h13.35.638617 +0530,
141,0,141,0,403.56173379998654,,403.5191928000422,10,403.56173379998654,403.56173379998654,0.02452670002821833,405.335387900006,[-0.19166666666666668],[-0.22666666666666666],[1],[0],[0],[1.7918343999190256],4,001,2024-10-10_16h13.23.497,Visual Search Experiment,2024.1.5,None,2024-10-10 16h13.35.638617 +0530,
142,0,142,0,405.3625763000455,,405.3376603999641,5,405.3625763000455,405.3625763000455,0.01364880008623004,406.85187210002914,[-0.4716666666666667],[0.08166666666666667],[1],[0],[0],[1.5006174000445753],4,001,2024-10-10_16h13.23.497,Visual Search Experiment,2024.1.5,None,2024-10-10 16h13.35.638617 +0530,
143,0,143,0,406.87965799996164,,406.8545064999489,5,406.87965799996164,406.87965799996164,0.014347299933433533,408.5202835999662,[0.3616666666666667],[0.335],[1],[0],[0],[1.6513453000225127],4,001,2024-10-10_16h13.23.497,Visual Search Experiment,2024.1.5,None,2024-10-10 16h13.35.638617 +0530,
144,0,144,0,408.5476690999931,,408.52251679997426,5,408.5476690999931,408.5476690999931,0.013705600053071976,410.13687030004803,[0.4216666666666667],[-0.18833333333333332],[1],[0],[0],[1.6005698000080884],4,001,2024-10-10_16h13.23.497,Visual Search Experiment,2024.1.5,None,2024-10-10 16h13.35.638617 +0530,
145,0,145,0,410.16436689998955,,410.139300400042,5,410.16436689998955,410.16436689998955,0.014114000019617379,411.8855608999729,[-0.44333333333333336],[-0.4066666666666667],[1],[0],[0],[1.7322574000572786],4,001,2024-10-10_16h13.23.497,Visual Search Experiment,2024.1.5,None,2024-10-10 16h13.35.638617 +0530,
146,0,146,0,411.93192330002785,,411.8877705000341,10,411.93192330002785,411.93192330002785,0.026055000023916364,413.71927200001664,[0.24833333333333332],[-0.043333333333333335],[1],[0],[0],[1.8056072000181302],4,001,2024-10-10_16h13.23.497,Visual Search Experiment,2024.1.5,None,2024-10-10 16h13.35.638617 +0530,
147,0,147,0,413.74917219998315,,413.7217830000445,5,413.74917219998315,413.74917219998315,0.013417400070466101,416.7550506000407,[0.37166666666666665],[0.3883333333333333],[1],[0],[0],[3.0201078999089077],4,001,2024-10-10_16h13.23.497,Visual Search Experiment,2024.1.5,None,2024-10-10 16h13.35.638617 +0530,
148,0,148,0,416.7838772999821,,416.75765150005464,5,416.7838772999821,416.7838772999821,0.013397900038398802,418.2912872999441,[0.32],[0.44333333333333336],[1],[0],[0],[1.5203070999123156],4,001,2024-10-10_16h13.23.497,Visual Search Experiment,2024.1.5,None,2024-10-10 16h13.35.638617 +0530,
149,0,149,0,418.3341991000343,,418.2936944999965,10,418.3341991000343,418.3341991000343,0.026867000036872923,420.14019229996484,[-0.49],[0.26],[1],[0],[0],[1.8197831000434235],4,001,2024-10-10_16h13.23.497,Visual Search Experiment,2024.1.5,None,2024-10-10 16h13.35.638617 +0530,
150,0,150,0,420.1685488000512,,420.14239920000546,5,420.1685488000512,420.1685488000512,0.01578790007624775,421.79125280003063,[0.2633333333333333],[0.16666666666666666],[1],[0],[0],[1.6330373999662697],4,001,2024-10-10_16h13.23.497,Visual Search Experiment,2024.1.5,None,2024-10-10 16h13.35.638617 +0530,
151,0,151,0,421.81905699998606,,421.7943305999506,5,421.81905699998606,421.81905699998606,0.014841799973510206,423.5423962000059,[0.24833333333333332],[0.27666666666666667],[1],[0],[0],[1.7335268999449909],4,001,2024-10-10_16h13.23.497,Visual Search Experiment,2024.1.5,None,2024-10-10 16h13.35.638617 +0530,
152,0,152,0,423.6034492000472,,423.5458764999639,10,423.6034492000472,423.6034492000472,0.02962350007146597,424.9579167000484,[0.12],[0.45],[1],[0],[0],[1.3827441000612453],4,001,2024-10-10_16h13.23.497,Visual Search Experiment,2024.1.5,None,2024-10-10 16h13.35.638617 +0530,
153,0,153,0,425.0039034000365,,424.96013869997114,10,425.0039034000365,425.0039034000365,0.025100999977439642,426.2409789999947,[-0.05333333333333334],[0.4066666666666667],[1],[0],[0],[1.2560113000217825],4,001,2024-10-10_16h13.23.497,Visual Search Experiment,2024.1.5,None,2024-10-10 16h13.35.638617 +0530,
154,0,154,0,426.2707170000067,,426.24323130003177,5,426.2707170000067,426.2707170000067,0.01600580010563135,427.52739099995233,[0.06833333333333333],[0.45166666666666666],[1],[0],[0],[1.267926099942997],4,001,2024-10-10_16h13.23.497,Visual Search Experiment,2024.1.5,None,2024-10-10 16h13.35.638617 +0530,
155,0,155,0,427.5548635999439,,427.5295935999602,5,427.5548635999439,427.5548635999439,0.013975800015032291,429.94431829999667,[-0.3416666666666667],[0.24833333333333332],[1],[0],[0],[2.4006577000254765],4,001,2024-10-10_16h13.23.497,Visual Search Experiment,2024.1.5,None,2024-10-10 16h13.35.638617 +0530,
156,0,156,0,429.9730432999786,,429.9468920000363,5,429.9730432999786,429.9730432999786,0.01366650010459125,432.24636610003654,[-0.23],[-0.2866666666666667],[1],[0],[0],[2.2860380000201985],4,001,2024-10-10_16h13.23.497,Visual Search Experiment,2024.1.5,None,2024-10-10 16h13.35.638617 +0530,
157,0,157,0,432.2895536000142,,432.2490946999751,10,432.2895536000142,432.2895536000142,0.02705559995956719,433.92879010003526,[-0.145],[-0.14666666666666667],[1],[0],[0],[1.6529221999226138],4,001,2024-10-10_16h13.23.497,Visual Search Experiment,2024.1.5,None,2024-10-10 16h13.35.638617 +0530,
158,0,158,0,433.9570711000124,,433.9312596999807,5,433.9570711000124,433.9570711000124,0.014224199927411973,435.6967268999433,[-0.435],[0.08666666666666667],[1],[0],[0],[1.75145139999222],4,001,2024-10-10_16h13.23.497,Visual Search Experiment,2024.1.5,None,2024-10-10 16h13.35.638617 +0530,
159,0,159,0,435.72440229996573,,435.6989375000121,5,435.72440229996573,435.72440229996573,0.01558789995033294,437.26293910003733,[0.465],[0.41333333333333333],[1],[0],[0],[1.5485236000968143],4,001,2024-10-10_16h13.23.497,Visual Search Experiment,2024.1.5,None,2024-10-10 16h13.35.638617 +0530,
160,0,160,0,437.29233059997205,,437.2651181999827,5,437.29233059997205,437.29233059997205,0.01310480001848191,438.7822589999996,[-0.3333333333333333],[0.16666666666666666],[1],[0],[0],[1.503700300003402],4,001,2024-10-10_16h13.23.497,Visual Search Experiment,2024.1.5,None,2024-10-10 16h13.35.638617 +0530,
161,0,161,0,438.8089360999875,,438.7862578999484,5,438.8089360999875,438.8089360999875,0.013674200046807528,440.04913199995644,[-0.4083333333333333],[0.30333333333333334],[1],[0],[0],[1.248979700030759],4,001,2024-10-10_16h13.23.497,Visual Search Experiment,2024.1.5,None,2024-10-10 16h13.35.638617 +0530,
162,0,162,0,440.07635959994514,,440.0513519999804,5,440.07635959994514,440.07635959994514,0.01406950003001839,441.85073619999457,[-0.023333333333333334],[0.02],[1],[0],[0],[1.785189500078559],4,001,2024-10-10_16h13.23.497,Visual Search Experiment,2024.1.5,None,2024-10-10 16h13.35.638617 +0530,
163,0,163,0,441.8768946999917,,441.85322159994394,5,441.8768946999917,441.8768946999917,0.014546200050972402,443.96771340002306,[0.058333333333333334],[-0.39666666666666667],[1],[0],[0],[2.1001112000085413],4,001,2024-10-10_16h13.23.497,Visual Search Experiment,2024.1.5,None,2024-10-10 16h13.35.638617 +0530,
164,0,164,0,444.0112378000049,,443.9700535000302,10,444.0112378000049,444.0112378000049,0.02983799995854497,445.48369310004637,[0.015],[0.39666666666666667],[1],[0],[0],[1.484043899923563],4,001,2024-10-10_16h13.23.497,Visual Search Experiment,2024.1.5,None,2024-10-10 16h13.35.638617 +0530,
165,0,165,0,445.52836610004306,,445.4859545000363,10,445.52836610004306,445.52836610004306,0.026289300061762333,448.7520695000421,[-0.32],[0.13166666666666665],[1],[0],[0],[3.2397790000541136],4,001,2024-10-10_16h13.23.497,Visual Search Experiment,2024.1.5,None,2024-10-10 16h13.35.638617 +0530,
166,0,166,0,448.7961706999922,,448.75536589999683,10,448.7961706999922,448.7961706999922,0.027373300050385296,450.3173098999541,[-0.14333333333333334],[-0.041666666666666664],[1],[0],[0],[1.5349669000133872],4,001,2024-10-10_16h13.23.497,Visual Search Experiment,2024.1.5,None,2024-10-10 16h13.35.638617 +0530,
167,0,167,0,450.36364620004315,,450.3195377000375,10,450.36364620004315,450.36364620004315,0.0243987999856472,451.73692279995885,[-0.42],[0.2],[1],[0],[0],[1.3931428999640048],4,001,2024-10-10_16h13.23.497,Visual Search Experiment,2024.1.5,None,2024-10-10 16h13.35.638617 +0530,
168,0,168,0,451.7807394999545,,451.73935869999696,10,451.7807394999545,451.7807394999545,0.028682100004516542,453.4710973999463,[0.415],[0.41333333333333333],[1],[0],[0],[1.7028977000154555],4,001,2024-10-10_16h13.23.497,Visual Search Experiment,2024.1.5,None,2024-10-10 16h13.35.638617 +0530,
169,0,169,0,453.5152933000354,,453.4733422000427,10,453.5152933000354,453.5152933000354,0.024901100085116923,455.08801680000033,[-0.18333333333333332],[-0.21],[1],[0],[0],[1.5899588000029325],4,001,2024-10-10_16h13.23.497,Visual Search Experiment,2024.1.5,None,2024-10-10 16h13.35.638617 +0530,
170,0,170,0,455.1326087999623,,455.09023329999764,10,455.1326087999623,455.1326087999623,0.02641869999933988,456.938857799978,[0.08166666666666667],[-0.38166666666666665],[1],[0],[0],[1.82221060001757],4,001,2024-10-10_16h13.23.497,Visual Search Experiment,2024.1.5,None,2024-10-10 16h13.35.638617 +0530,
171,0,171,0,456.98300749994814,,456.9423891999759,10,456.98300749994814,456.98300749994814,0.026613499969244003,458.47268150001764,[-0.19333333333333333],[0.34],[1],[0],[0],[1.5038958000950515],4,001,2024-10-10_16h13.23.497,Visual Search Experiment,2024.1.5,None,2024-10-10 16h13.35.638617 +0530,
172,0,172,0,458.5003608999541,,458.4749307000311,5,458.5003608999541,458.5003608999541,0.01335070002824068,460.29006669996306,[0.06833333333333333],[0.15166666666666667],[1],[0],[0],[1.8018644000403583],4,001,2024-10-10_16h13.23.497,Visual Search Experiment,2024.1.5,None,2024-10-10 16h13.35.638617 +0530,
173,0,173,0,460.35108990001027,,460.29465289996006,10,460.35108990001027,460.35108990001027,0.02764370001386851,462.7417177000316,[-0.2],[-0.3283333333333333],[1],[0],[0],[2.4198407999938354],4,001,2024-10-10_16h13.23.497,Visual Search Experiment,2024.1.5,None,2024-10-10 16h13.35.638617 +0530,
174,0,174,0,462.78499620000366,,462.74456480005756,10,462.78499620000366,462.78499620000366,0.026899600052274764,466.89049939997494,[-0.4066666666666667],[0.4533333333333333],[1],[0],[0],[4.11924040003214],4,001,2024-10-10_16h13.23.497,Visual Search Experiment,2024.1.5,None,2024-10-10 16h13.35.638617 +0530,
175,0,175,0,466.9365862000268,,466.8927659000037,10,466.9365862000268,466.9365862000268,0.024856099975295365,468.5266575999558,[0.34833333333333333],[0.15],[1],[0],[0],[1.6088087999960408],4,001,2024-10-10_16h13.23.497,Visual Search Experiment,2024.1.5,None,2024-10-10 16h13.35.638617 +0530,
176,0,176,0,468.5708746999735,,468.5289252999937,10,468.5708746999735,468.5708746999735,0.026649300009012222,470.46110660000704,[0.2866666666666667],[-0.17333333333333334],[1],[0],[0],[1.9055937000084668],4,001,2024-10-10_16h13.23.497,Visual Search Experiment,2024.1.5,None,2024-10-10 16h13.35.638617 +0530,
177,0,177,0,470.489040400018,,470.46337709994987,5,470.489040400018,470.489040400018,0.013310500071384013,472.61197009996977,[-0.023333333333333334],[-0.46166666666666667],[1],[0],[0],[2.135486699989997],4,001,2024-10-10_16h13.23.497,Visual Search Experiment,2024.1.5,None,2024-10-10 16h13.35.638617 +0530,
178,0,178,0,472.6558110000333,,472.61418999999296,10,472.6558110000333,472.6558110000333,0.024538900004699826,475.1285281999735,[-0.395],[0.335],[1],[0],[0],[2.4899008000502363],4,001,2024-10-10_16h13.23.497,Visual Search Experiment,2024.1.5,None,2024-10-10 16h13.35.638617 +0530,
179,0,179,0,475.1566697000526,,475.13113820005674,5,475.1566697000526,475.1566697000526,0.013922299956902862,477.8958096000133,[0.24833333333333332],[0.20833333333333334],[1],[0],[0],[2.750870499992743],4,001,2024-10-10_16h13.23.497,Visual Search Experiment,2024.1.5,None,2024-10-10 16h13.35.638617 +0530,
180,0,180,0,477.9416803000495,,477.8980284000281,10,477.9416803000495,477.9416803000495,0.02612560009583831,479.32810140005313,[-0.08166666666666667],[0.27666666666666667],[1],[0],[0],[1.4041915000416338],4,001,2024-10-10_16h13.23.497,Visual Search Experiment,2024.1.5,None,2024-10-10 16h13.35.638617 +0530,
181,0,181,0,479.358198300004,,479.33059030002914,5,479.358198300004,479.358198300004,0.013240800006315112,481.06575830001384,[0.35333333333333333],[-0.2966666666666667],[1],[0],[0],[1.721801899955608],4,001,2024-10-10_16h13.23.497,Visual Search Experiment,2024.1.5,None,2024-10-10 16h13.35.638617 +0530,
182,0,182,0,481.0923711999785,,481.0697466999991,5,481.0923711999785,481.0923711999785,0.014222900033928454,484.2471273000119,[-0.395],[-0.48],[1],[0],[0],[3.1635246999794617],4,001,2024-10-10_16h13.23.497,Visual Search Experiment,2024.1.5,None,2024-10-10 16h13.35.638617 +0530,
183,0,183,0,484.277169900015,,484.24935769999865,5,484.277169900015,484.277169900015,0.013621399994008243,485.83490350004286,[-0.3566666666666667],[-0.275],[1],[0],[0],[1.5719323999946937],4,001,2024-10-10_16h13.23.497,Visual Search Experiment,2024.1.5,None,2024-10-10 16h13.35.638617 +0530,
184,0,184,0,485.86091839999426,,485.83712439995725,5,485.86091839999426,485.86091839999426,0.013597600045613945,487.6001714000013,[-0.058333333333333334],[0.3233333333333333],[1],[0],[0],[1.7495336999418214],4,001,2024-10-10_16h13.23.497,Visual Search Experiment,2024.1.5,None,2024-10-10 16h13.35.638617 +0530,
185,0,185,0,487.62815320002846,,487.60260370001197,5,487.62815320002846,487.62815320002846,0.016095200087875128,488.9012925999705,[-0.20833333333333334],[0.1],[1],[0],[0],[1.2827877000672743],4,001,2024-10-10_16h13.23.497,Visual Search Experiment,2024.1.5,None,2024-10-10 16h13.35.638617 +0530,
186,0,186,0,488.92889310000464,,488.90449230000377,5,488.92889310000464,488.92889310000464,0.013540100073441863,490.9196150000207,[-0.305],[-0.485],[1],[0],[0],[2.001489100046456],4,001,2024-10-10_16h13.23.497,Visual Search Experiment,2024.1.5,None,2024-10-10 16h13.35.638617 +0530,
187,0,187,0,490.94713220000267,,490.9218571999809,5,490.94713220000267,490.94713220000267,0.013978400034829974,492.3870857000584,[0.23],[0.14],[1],[0],[0],[1.451461200020276],4,001,2024-10-10_16h13.23.497,Visual Search Experiment,2024.1.5,None,2024-10-10 16h13.35.638617 +0530,
188,0,188,0,492.43040840001777,,492.3894224000396,10,492.43040840001777,492.43040840001777,0.02520199993159622,493.6178470000159,[-0.115],[0.19666666666666666],[1],[0],[0],[1.2033235999988392],4,001,2024-10-10_16h13.23.497,Visual Search Experiment,2024.1.5,None,2024-10-10 16h13.35.638617 +0530,
189,0,189,0,493.6639851999935,,493.6205464999657,10,493.6639851999935,493.6639851999935,0.025502000004053116,495.60126969998237,[0.12166666666666667],[0.05333333333333334],[1],[0],[0],[1.9554922000970691],4,001,2024-10-10_16h13.23.497,Visual Search Experiment,2024.1.5,None,2024-10-10 16h13.35.638617 +0530,
190,0,190,0,495.63139610004146,,495.604038999998,5,495.63139610004146,495.63139610004146,0.013334300019778311,497.3374810999958,[0.295],[-0.415],[1],[0],[0],[1.7202544999308884],4,001,2024-10-10_16h13.23.497,Visual Search Experiment,2024.1.5,None,2024-10-10 16h13.35.638617 +0530,
191,0,191,0,497.3818471999839,,497.3397138,10,497.3818471999839,497.3818471999839,0.027285399963147938,499.90332389995456,[0.19],[-0.35],[1],[0],[0],[2.536566899972968],4,001,2024-10-10_16h13.23.497,Visual Search Experiment,2024.1.5,None,2024-10-10 16h13.35.638617 +0530,
192,0,192,0,499.93310539994854,,499.90558779996354,5,499.93310539994854,499.93310539994854,0.013447800069116056,501.55467650003266,[0.05333333333333334],[0.38666666666666666],[1],[0],[0],[1.6357930999947712],4,001,2024-10-10_16h13.23.497,Visual Search Experiment,2024.1.5,None,2024-10-10 16h13.35.638617 +0530,
193,0,193,0,501.60028889996465,,501.5569905999582,10,501.60028889996465,501.60028889996465,0.024854699964635074,503.3396344999783,[-0.3616666666666667],[-0.18333333333333332],[1],[0],[0],[1.7579642999917269],4,001,2024-10-10_16h13.23.497,Visual Search Experiment,2024.1.5,None,2024-10-10 16h13.35.638617 +0530,
194,0,194,0,503.3843031999422,,503.3426767999772,10,503.3843031999422,503.3843031999422,0.0256525999866426,505.07265560003,[0.4483333333333333],[0.06166666666666667],[1],[0],[0],[1.7044315999373794],4,001,2024-10-10_16h13.23.497,Visual Search Experiment,2024.1.5,None,2024-10-10 16h13.35.638617 +0530,
195,0,195,0,505.1181757999584,,505.0751868999796,5,505.1181757999584,505.1181757999584,0.015994400018826127,506.5596310000401,[-0.22833333333333333],[0.2833333333333333],[1],[0],[0],[1.4684858999680728],4,001,2024-10-10_16h13.23.497,Visual Search Experiment,2024.1.5,None,2024-10-10 16h13.35.638617 +0530,
196,0,196,0,506.5854645000072,,506.56182489998173,5,506.5854645000072,506.5854645000072,0.015569200040772557,508.5917790000094,[0.4116666666666667],[-0.1],[1],[0],[0],[2.0145507999695837],4,001,2024-10-10_16h13.23.497,Visual Search Experiment,2024.1.5,None,2024-10-10 16h13.35.638617 +0530,
197,0,197,0,508.6370233000489,,508.594018499949,10,508.6370233000489,508.6370233000489,0.025384800042957067,510.64070820005145,[-0.30666666666666664],[0.14166666666666666],[1],[0],[0],[2.0215231000911444],4,001,2024-10-10_16h13.23.497,Visual Search Experiment,2024.1.5,None,2024-10-10 16h13.35.638617 +0530,
198,0,198,0,510.6712064000312,,510.6429497000063,5,510.6712064000312,510.6712064000312,0.013850999996066093,512.2928634999553,[-0.18166666666666667],[0.37666666666666665],[1],[0],[0],[1.6360968999797478],4,001,2024-10-10_16h13.23.497,Visual Search Experiment,2024.1.5,None,2024-10-10 16h13.35.638617 +0530,
199,0,199,0,512.3379305000417,,512.2952317999443,10,512.3379305000417,512.3379305000417,0.026098100002855062,514.7795008999528,[0.42833333333333334],[-0.4166666666666667],[1],[0],[0],[2.458327899919823],4,001,2024-10-10_16h13.23.497,Visual Search Experiment,2024.1.5,None,2024-10-10 16h13.35.638617 +0530,
